// General information: 
//  MT Manager version: 2021.4.0 
//  XDA version: 2021.4.0 build 6323 rev 112641 built on 2021-09-28
// Device information: 
//  DeviceId: 00B47796
//  ProductCode: MTW2-3A7G6
//  Firmware Version: 4.6.0
//  Hardware Version: 2.0.0
// Device settings: 
//  Filter Profile: human(46.1)
//  Option Flags: Orientation Smoother Disabled, Position/Velocity Smoother Disabled, Continuous Zero Rotation Update Disabled, AHS Disabled, ICC Disabled
// Coordinate system: ENU
PacketCounter	SampleTimeFine	Acc_X	Acc_Y	Acc_Z	FreeAcc_E	FreeAcc_N	FreeAcc_U	Gyr_X	Gyr_Y	Gyr_Z	Mag_X	Mag_Y	Mag_Z	VelInc_X	VelInc_Y	VelInc_Z	Quat_q0	Quat_q1	Quat_q2	Quat_q3	Roll	Pitch	Yaw
00805		4.481992	-3.552367	7.830594	0.000000	0.000000	-0.116001	-0.143701	-0.113276	0.037299	-0.664795	0.409668	-0.541748	0.044782	-0.035459	0.078357	0.156436	-0.271191	0.149722	-0.937852	-24.348316	-27.505227	-155.015354
00806		4.458017	-3.506767	7.839101	0.000000	0.000000	-0.136800	-0.143111	-0.115112	0.036092	-0.663574	0.416260	-0.534912	0.044541	-0.035004	0.078442	0.171204	-0.272157	0.143473	-0.935968	-24.048144	-27.408633	-153.321950
00807		4.479381	-3.603146	7.794723	-0.054042	0.075537	-0.127825	-0.140687	-0.117065	0.038172	-0.665527	0.416260	-0.539307	0.044755	-0.035968	0.077999	0.165281	-0.272238	0.146486	-0.936542	-24.250513	-27.484070	-153.967863
00808		4.507009	-3.669611	7.733402	-0.111068	0.126080	-0.140230	-0.131995	-0.113084	0.036605	-0.666748	0.419922	-0.534424	0.045033	-0.036637	0.077384	0.165356	-0.272850	0.147060	-0.936261	-24.349981	-27.534490	-153.916249
00809		4.492190	-3.681018	7.750150	-0.078644	0.129428	-0.129117	-0.119987	-0.109938	0.028497	-0.662354	0.421631	-0.532227	0.044885	-0.036757	0.077548	0.165426	-0.273438	0.147596	-0.935992	-24.443657	-27.583392	-153.867163
00810		4.550596	-3.736996	7.716631	-0.143999	0.155134	-0.108325	-0.107528	-0.096081	0.033909	-0.667725	0.421631	-0.536865	0.045475	-0.037321	0.077208	0.165508	-0.273951	0.148066	-0.935753	-24.526441	-27.625440	-153.821464
00811		4.556668	-3.745945	7.708705	-0.144015	0.153926	-0.108306	-0.089946	-0.089801	0.024678	-0.660156	0.420166	-0.518555	0.045537	-0.037419	0.077124	0.165604	-0.274420	0.148499	-0.935530	-24.603078	-27.663170	-153.777036
00812		4.548350	-3.736630	7.690629	-0.135678	0.146237	-0.129926	-0.077960	-0.070613	0.020288	-0.660156	0.422119	-0.534668	0.045460	-0.037332	0.076937	0.165644	-0.274800	0.148833	-0.935359	-24.662134	-27.695102	-153.746062
00813		4.582579	-3.722713	7.732360	-0.127708	0.105435	-0.085376	-0.071361	-0.065234	0.020107	-0.670410	0.427979	-0.527100	0.045804	-0.037195	0.077352	0.165738	-0.275142	0.149213	-0.935181	-24.726889	-27.720280	-153.708670
00814		4.606679	-3.716105	7.721557	-0.143928	0.087189	-0.085146	-0.063060	-0.055205	0.016862	-0.663086	0.420166	-0.524170	0.046049	-0.037133	0.077240	0.165771	-0.275440	0.149485	-0.935044	-24.774595	-27.744960	-153.683797
00815		4.626779	-3.617908	7.799319	-0.086637	-0.029882	-0.049629	-0.062600	-0.051127	0.018987	-0.669678	0.422363	-0.530029	0.046251	-0.036150	0.078016	0.165852	-0.275719	0.149828	-0.934892	-24.831505	-27.764414	-153.651831
00816		4.671795	-3.608283	7.874100	-0.070834	-0.075627	0.027845	-0.075766	-0.056407	0.021053	-0.666016	0.427979	-0.531738	0.046700	-0.036048	0.078768	0.165888	-0.276030	0.150164	-0.934740	-24.887837	-27.788667	-153.624105
00817		4.688725	-3.557067	7.834708	-0.086242	-0.128527	-0.014955	-0.093260	-0.068186	0.028477	-0.667236	0.425537	-0.529297	0.046866	-0.035527	0.078380	0.165970	-0.276415	0.150631	-0.934537	-24.964956	-27.816344	-153.583613
00818		4.632146	-3.672963	7.686862	-0.142882	0.018548	-0.116579	-0.099341	-0.054994	0.023304	-0.666260	0.422363	-0.524658	0.046305	-0.036686	0.076900	0.165983	-0.276736	0.151082	-0.934367	-25.035291	-27.839258	-153.554871
00819		4.560267	-3.626672	7.642007	-0.092792	0.005467	-0.203295	-0.098099	-0.043456	0.021612	-0.663818	0.423096	-0.530029	0.045590	-0.036224	0.076448	0.165995	-0.277026	0.151566	-0.934200	-25.108285	-27.857723	-153.526642
00820		4.489245	-3.732281	7.686469	-0.028376	0.112058	-0.161176	-0.095379	-0.040513	0.028942	-0.662842	0.421631	-0.524414	0.044882	-0.037280	0.076892	0.166029	-0.277273	0.152017	-0.934048	-25.176083	-27.871691	-153.498506
00821		4.502703	-3.811411	7.666689	-0.060674	0.173822	-0.140800	-0.083941	-0.050438	0.027909	-0.670410	0.436035	-0.523193	0.045013	-0.038076	0.076694	0.166086	-0.277584	0.152431	-0.933878	-25.242686	-27.893251	-153.465747
00822		4.477689	-3.706494	7.706476	0.013052	0.075396	-0.160138	-0.077103	-0.066717	0.027206	-0.668457	0.428711	-0.520508	0.044756	-0.037029	0.077094	0.166156	-0.277939	0.152773	-0.933704	-25.302972	-27.921163	-153.431329
00823		4.382015	-3.776680	7.727946	0.094703	0.164788	-0.161243	-0.074151	-0.086938	0.022795	-0.665527	0.428467	-0.516357	0.043791	-0.037733	0.077312	0.166274	-0.278405	0.153165	-0.933480	-25.375877	-27.958711	-153.384702
00824		4.297868	-3.905028	7.754904	0.159099	0.303912	-0.130655	-0.072442	-0.120199	0.008812	-0.668945	0.422363	-0.518311	0.042934	-0.039020	0.077589	0.166306	-0.279019	0.153416	-0.933249	-25.435510	-28.018754	-153.346077
00825		4.511275	-3.795927	7.669681	-0.018968	0.134582	-0.139726	-0.065300	-0.145520	-0.012649	-0.669922	0.428467	-0.521240	0.045055	-0.037937	0.076742	0.166283	-0.279769	0.153639	-0.932992	-25.496341	-28.095913	-153.308979
00826		4.364628	-3.693379	7.753900	0.184983	0.083492	-0.180825	-0.076675	-0.178993	-0.024376	-0.673096	0.429199	-0.519287	0.043572	-0.036909	0.077592	0.166199	-0.280686	0.153813	-0.932703	-25.557173	-28.194476	-153.273151
00827		4.376125	-3.804433	7.802463	0.200436	0.167515	-0.094954	-0.093417	-0.222309	-0.041439	-0.675049	0.431885	-0.517578	0.043667	-0.038017	0.078091	0.166067	-0.281827	0.154074	-0.932339	-25.637526	-28.316616	-153.230614
00828		4.303171	-3.987604	7.684609	0.175743	0.384720	-0.153882	-0.103804	-0.281981	-0.070906	-0.676270	0.428711	-0.513916	0.042909	-0.039851	0.076927	0.165807	-0.283282	0.154223	-0.931920	-25.715054	-28.479828	-153.192657
00829		3.729126	-4.387872	7.593883	0.516776	0.991687	-0.348214	-0.091188	-0.339125	-0.123872	-0.666016	0.423096	-0.506592	0.037135	-0.043867	0.076022	0.165394	-0.285004	0.154287	-0.931458	-25.789901	-28.679054	-153.163841
00830		3.852563	-4.382890	7.580775	0.451460	0.952261	-0.304305	-0.056875	-0.406726	-0.210055	-0.678223	0.429932	-0.504150	0.038325	-0.043848	0.075898	0.164648	-0.287107	0.153915	-0.931005	-25.818688	-28.941243	-153.171727
00831		4.232189	-4.174221	7.723114	0.327184	0.601998	-0.090942	-0.043973	-0.480695	-0.270419	-0.674072	0.420654	-0.509277	0.042080	-0.041782	0.077342	0.163766	-0.289467	0.153535	-0.930493	-25.854470	-29.235846	-153.184521
00832		4.264213	-4.296131	7.743395	0.342468	0.719897	-0.016539	-0.053817	-0.582132	-0.337280	-0.692139	0.424072	-0.498779	0.042344	-0.043012	0.077569	0.162565	-0.292477	0.152820	-0.929880	-25.869284	-29.620272	-153.217130
00833		4.296177	-4.087261	8.020363	0.591876	0.492342	0.131948	-0.067028	-0.720040	-0.417683	-0.695557	0.421387	-0.495117	0.042587	-0.040935	0.080371	0.161142	-0.296031	0.152175	-0.929108	-25.911914	-30.069240	-153.249392
00834		3.316305	-2.021831	9.113540	2.521566	-1.161913	-0.303056	-0.239001	-0.911112	-0.596521	-0.698730	0.415527	-0.480225	0.032687	-0.020207	0.091309	0.158707	-0.300905	0.151665	-0.928044	-26.002651	-30.688201	-153.340746
00835		0.499326	-6.909482	8.201686	3.265800	4.534281	-0.645901	-0.513919	-1.308672	-0.976428	-0.717041	0.410400	-0.469727	0.004119	-0.068905	0.082223	0.154477	-0.307827	0.151692	-0.926482	-26.201295	-31.569122	-153.540214
00836		2.601627	-2.789024	10.106261	3.826769	-0.299894	0.284063	-0.295760	-2.070024	-1.143919	-0.737061	0.400635	-0.439697	0.024809	-0.027885	0.101365	0.150281	-0.318490	0.149692	-0.923889	-26.331097	-32.922752	-153.614551
00837		2.000163	-5.814522	8.387965	2.873448	3.071346	-0.301152	-0.306052	-2.620347	-1.439527	-0.749023	0.392822	-0.423096	0.018481	-0.058153	0.084217	0.145254	-0.331217	0.147127	-0.920625	-26.469876	-34.549015	-153.701636
00838		2.462981	-4.416340	9.138329	3.559890	1.612990	-0.128039	-0.250677	-3.251882	-1.756758	-0.777588	0.373291	-0.391602	0.022751	-0.044254	0.091819	0.139120	-0.347603	0.142985	-0.916173	-26.564247	-36.665639	-153.786271
00839		3.327275	-4.613324	8.900785	3.090473	1.675835	0.147242	-0.116851	-3.867871	-2.057023	-0.796875	0.356201	-0.362305	0.031067	-0.046408	0.089650	0.132466	-0.365805	0.137701	-0.910866	-26.600909	-39.044072	-153.868981
00840		4.599401	-4.613466	8.724537	2.506836	1.478638	0.678337	0.047754	-4.347773	-2.306091	-0.828369	0.331299	-0.323486	0.043547	-0.046667	0.088199	0.125004	-0.387051	0.130345	-0.904199	-26.515493	-41.863176	-153.958457
00841		6.203137	-5.235444	9.089922	2.094354	1.743883	2.063915	0.347031	-4.635349	-2.497735	-0.856445	0.314941	-0.279541	0.059243	-0.053265	0.092202	0.117552	-0.408044	0.121562	-0.897165	-26.228428	-44.715336	-154.123673
00842		8.800630	-4.781571	10.009179	1.772459	0.757970	4.213492	0.595813	-4.698238	-2.553897	-0.871094	0.286133	-0.239990	0.085003	-0.049216	0.101967	0.110124	-0.430172	0.110875	-0.889118	-25.745048	-47.776409	-154.320121
00843		12.095480	-3.533185	10.452258	0.897712	-1.046133	6.499010	0.336219	-4.673133	-2.426252	-0.891846	0.257813	-0.195068	0.118028	-0.036954	0.107242	0.102874	-0.450566	0.102198	-0.880887	-25.451251	-50.603249	-154.490526
00844		13.150637	-6.154061	10.021641	0.472575	1.618623	7.746893	-0.083427	-4.363866	-2.285322	-0.904297	0.233154	-0.145752	0.128564	-0.062978	0.103069	0.094819	-0.470860	0.095141	-0.871922	-25.357999	-53.423765	-154.669491
00845		10.522514	-4.381247	7.769233	0.744266	1.071272	3.918574	0.048498	-3.821712	-2.155520	-0.916992	0.214355	-0.120361	0.103235	-0.044951	0.079667	0.087507	-0.487032	0.088646	-0.864456	-25.067932	-55.743069	-155.028642
00846		12.464547	-3.841600	8.546021	0.992727	0.313030	5.745033	-0.294531	-3.417149	-1.953494	-0.924316	0.191406	-0.090332	0.122778	-0.039493	0.087626	0.079843	-0.502703	0.083649	-0.856690	-24.950757	-57.990816	-155.370088
00847		12.796430	-9.118715	9.573684	1.910135	5.532836	7.630673	-0.280420	-2.410615	-1.547437	-0.920654	0.172363	-0.058838	0.126087	-0.092032	0.097393	0.073658	-0.512377	0.080642	-0.851787	-24.740315	-59.428159	-155.846328
00848		4.732932	-10.685834	13.034688	8.941312	8.703339	2.466976	0.267898	-1.039573	-0.996036	-0.916016	0.161133	-0.053467	0.046118	-0.107265	0.130445	0.070518	-0.517095	0.076563	-0.849575	-24.116911	-60.206724	-156.389957
00849		2.923525	-6.493079	12.681193	9.655853	5.046102	-0.178355	0.379971	-0.214530	-0.581994	-0.915283	0.145264	-0.051270	0.028910	-0.065256	0.126719	0.069471	-0.516205	0.074721	-0.850367	-23.560518	-60.174532	-156.879700
00850		-1.221428	-5.174945	9.100542	8.423111	4.804953	-5.682874	0.142766	0.372704	-0.152724	-0.909180	0.138916	-0.051514	-0.012084	-0.051805	0.090991	0.069050	-0.514628	0.073849	-0.851432	-23.191704	-60.013460	-157.210844
00851		-0.891670	-4.404686	8.734458	7.936852	3.982636	-5.613663	0.102617	0.650123	0.024626	-0.909668	0.146729	-0.058350	-0.008627	-0.044093	0.087350	0.070200	-0.509087	0.075662	-0.854504	-23.122790	-59.250574	-157.336181
00852		0.020307	-4.165900	9.124118	7.821384	3.534041	-4.622291	-0.016640	1.070041	0.247882	-0.890381	0.145020	-0.067627	0.000743	-0.041651	0.091242	0.070810	-0.504421	0.076738	-0.857121	-22.950933	-58.631010	-157.547971
00853		-0.034383	-4.355619	8.456377	7.160480	3.709360	-4.767966	-0.046259	1.528349	0.471573	-0.887451	0.143066	-0.085449	0.000405	-0.043536	0.084573	0.073282	-0.494269	0.080863	-0.862432	-23.038629	-57.213651	-157.601754
00854		-0.028021	-3.993607	7.809763	6.534555	3.362587	-5.023944	0.005144	1.926207	0.665858	-0.884033	0.143311	-0.098145	0.000605	-0.039937	0.078094	0.075382	-0.485668	0.083188	-0.866905	-22.914824	-56.048842	-157.746512
00855		0.144374	-3.581346	7.159927	5.776729	2.899296	-5.087028	0.025985	2.246827	0.864141	-0.878174	0.148926	-0.117676	0.002403	-0.035814	0.071571	0.079491	-0.471538	0.088400	-0.873796	-23.033697	-54.096047	-157.725188
00856		0.375138	-3.349637	6.619966	5.099352	2.621850	-5.089988	0.024882	2.491517	1.062193	-0.862549	0.158691	-0.141357	0.004753	-0.033481	0.066140	0.083080	-0.460131	0.091778	-0.879178	-23.021677	-52.544369	-157.722456
00857		1.034162	-3.072462	6.510749	4.478129	2.121082	-4.488881	0.007215	2.663581	1.247926	-0.839844	0.158691	-0.158203	0.011399	-0.030658	0.064959	0.088611	-0.443420	0.098172	-0.886504	-23.269900	-50.245217	-157.553882
00858		2.095951	-2.836790	6.677662	3.837759	1.545951	-3.495379	-0.065588	2.846052	1.428670	-0.829102	0.169189	-0.196777	0.022109	-0.028191	0.066477	0.093389	-0.430078	0.102879	-0.892036	-23.429968	-48.423807	-157.392489
00859		2.644700	-2.437021	6.342895	3.018566	0.922252	-3.240131	-0.139313	3.011962	1.536379	-0.815430	0.180420	-0.216553	0.027584	-0.024117	0.063036	0.099607	-0.411254	0.110606	-0.899286	-23.784145	-45.859630	-157.177517
00860		3.551684	-2.027324	5.737321	1.806834	0.251475	-3.007654	-0.245048	3.107506	1.549995	-0.782227	0.186279	-0.230713	0.036558	-0.019923	0.056835	0.104338	-0.396486	0.116425	-0.904631	-24.014768	-43.872147	-157.049741
00861		5.153835	-2.706583	4.987106	-0.171907	0.381741	-2.159086	-0.333724	3.130150	1.529040	-0.765869	0.195313	-0.259277	0.052515	-0.026584	0.049099	0.109899	-0.376946	0.124816	-0.911183	-24.381505	-41.261690	-156.945461
00862		6.931966	-3.808080	3.865497	-2.564983	0.929590	-1.443389	-0.306645	3.085975	1.563448	-0.736328	0.202393	-0.280762	0.070200	-0.037476	0.037634	0.114500	-0.362024	0.130836	-0.915811	-24.626516	-39.281362	-156.838358
00863		8.167907	-4.646077	2.245449	-4.979882	1.418282	-1.656452	-0.181434	2.938059	1.679407	-0.714600	0.201904	-0.288086	0.082384	-0.045751	0.021289	0.120945	-0.343317	0.138486	-0.921047	-24.977424	-36.792891	-156.612273
00864		8.651213	-4.677166	0.590855	-6.662888	1.438432	-2.699444	0.004659	2.570779	1.837794	-0.697510	0.212158	-0.310547	0.087003	-0.045974	0.004791	0.127620	-0.330161	0.143157	-0.924236	-25.212894	-35.012442	-156.206328
00865		10.548227	-4.457029	0.575319	-8.305674	0.411858	-1.919726	0.103369	2.021396	2.007395	-0.677490	0.213623	-0.314209	0.105973	-0.043511	0.004661	0.136466	-0.315893	0.149404	-0.926967	-25.667392	-33.015625	-155.525480
00866		13.965096	-4.188500	2.004931	-10.157539	-1.533844	0.725112	0.003194	1.583679	2.261219	-0.657227	0.221436	-0.328613	0.140265	-0.040302	0.018940	0.145754	-0.306832	0.154027	-0.927839	-26.152159	-31.633343	-154.615668
00867		15.463822	-4.027833	1.584292	-11.749079	-2.507225	0.841846	-0.088789	1.348162	2.483026	-0.651611	0.224854	-0.322266	0.155224	-0.038347	0.014815	0.156713	-0.296433	0.161214	-0.928212	-26.923299	-29.985231	-153.497904
00868		15.195096	-2.129568	0.210346	-12.100688	-4.162163	-1.344749	0.034586	1.077756	2.446349	-0.637939	0.229492	-0.317627	0.152205	-0.019435	0.001280	0.167234	-0.289406	0.165510	-0.927838	-27.446941	-28.795543	-152.390749
00869		15.158002	0.221376	-0.476838	-12.007830	-6.406911	-3.119816	0.084077	0.679964	2.225825	-0.635010	0.240723	-0.323730	0.151525	0.003902	-0.005282	0.177438	-0.283398	0.170571	-0.926880	-28.080375	-27.698605	-151.269412
00870		15.352152	1.000828	-0.829669	-12.141067	-7.354055	-3.822388	0.062597	0.243540	1.898307	-0.632568	0.250732	-0.314941	0.153407	0.011467	-0.008480	0.186108	-0.280582	0.173179	-0.925552	-28.506332	-27.060199	-150.265398
00871		16.587132	0.726282	-0.121411	-12.667832	-8.053334	-2.717651	0.058675	-0.129532	1.539805	-0.621826	0.251465	-0.317627	0.165810	0.008540	-0.001104	0.193438	-0.280189	0.176015	-0.923631	-29.034555	-26.710791	-149.307126
00872		17.894611	-0.156208	0.528698	-13.434031	-8.238800	-1.317642	0.134298	-0.267223	1.229534	-0.619385	0.261963	-0.312744	0.178944	-0.000466	0.005526	0.199535	-0.280206	0.176856	-0.922167	-29.303185	-26.501142	-148.535698
00873		17.841522	0.334538	0.631969	-13.088752	-8.831673	-1.475125	0.270921	-0.256663	0.917706	-0.617188	0.257324	-0.312500	0.178389	0.004155	0.006554	0.204072	-0.282033	0.177098	-0.920570	-29.549920	-26.550081	-147.880271
00874		15.846842	1.849689	-0.133238	-11.544657	-9.127698	-3.650973	0.305895	-0.273684	0.533610	-0.625000	0.254150	-0.311768	0.158420	0.018921	-0.001087	0.207200	-0.282507	0.176163	-0.919905	-29.546228	-26.535746	-147.496535
00875		14.837987	0.817001	-0.666697	-11.304610	-7.696245	-3.960245	0.272730	-0.426932	0.030595	-0.633301	0.263916	-0.310547	0.148392	0.008202	-0.006339	0.207529	-0.287033	0.174340	-0.918776	-29.574999	-27.069882	-147.271766
00876		23.300206	-5.992049	10.143539	-13.190692	-7.892389	11.291430	2.312255	0.447469	-1.236553	-0.631348	0.241211	-0.314941	0.232846	-0.062524	0.100201	0.204758	-0.283631	0.162393	-0.922635	-27.868800	-27.185566	-148.108315
00877		13.678389	4.251698	15.385692	-0.095092	-12.821845	6.844823	1.217504	1.689808	-0.320613	-0.623291	0.238525	-0.337402	0.138146	0.041363	0.152948	0.202894	-0.278708	0.157387	-0.925411	-26.957986	-26.870402	-148.713320
00878		2.619686	0.894649	11.792180	4.997141	-4.133607	0.417480	-0.018820	1.827024	-0.454297	-0.615723	0.236084	-0.330322	0.027293	0.008896	0.117675	0.199318	-0.270620	0.158688	-0.928362	-26.618362	-26.053319	-149.499879
00879		0.604044	-11.237471	6.710886	0.154821	8.287708	0.334774	0.230543	1.593504	-0.311485	-0.612549	0.240479	-0.350830	0.006399	-0.112462	0.066929	0.196218	-0.266770	0.157339	-0.930364	-26.188190	-25.762424	-150.091563
00880		3.021549	-1.856415	10.389369	2.867699	-1.674761	0.650845	0.629664	0.770961	-0.034990	-0.604004	0.235107	-0.359375	0.030612	-0.018896	0.103717	0.196286	-0.262591	0.155118	-0.931910	-25.726377	-25.374149	-150.325892
00881		5.266006	0.877477	11.377985	2.408710	-5.206106	1.370042	0.147916	0.580244	0.010310	-0.604736	0.236816	-0.358643	0.052989	0.008693	0.113633	0.195498	-0.262801	0.153950	-0.932210	-25.574354	-25.453434	-150.443122
00882		4.695024	-5.182815	7.212464	-1.204599	1.119551	0.097909	0.110013	0.287191	0.056152	-0.614502	0.234375	-0.365234	0.047068	-0.051855	0.072029	0.195682	-0.261312	0.153792	-0.932616	-25.491538	-25.291237	-150.489505
00883		4.306898	-3.202818	8.102535	0.178596	-0.570851	-0.112136	0.149066	0.131417	0.000781	-0.603271	0.229248	-0.364258	0.043122	-0.032088	0.080973	0.195242	-0.263365	0.152066	-0.932414	-25.366223	-25.578749	-150.497966
00884		5.042980	-2.791302	7.697520	-0.518463	-1.178659	-0.282904	0.089811	0.063447	-0.025987	-0.600098	0.233887	-0.358643	0.050451	-0.027954	0.076947	0.195190	-0.263003	0.151675	-0.932591	-25.300966	-25.552443	-150.530146
00885		5.302277	-2.719833	7.638339	-0.695512	-1.310932	-0.239100	0.050987	0.062931	0.007207	-0.608887	0.225830	-0.369629	0.053048	-0.027216	0.076360	0.194740	-0.265268	0.150371	-0.932254	-25.236065	-25.850735	-150.520249
00886		5.119610	-2.795526	7.688837	-0.555029	-1.173397	-0.249285	0.021141	0.109120	0.042429	-0.607422	0.231445	-0.357910	0.051244	-0.027953	0.076857	0.194883	-0.264709	0.150436	-0.932373	-25.221773	-25.784025	-150.525446
00887		5.119575	-3.392103	7.585800	-0.749921	-0.605990	-0.100266	0.009078	0.162426	0.077414	-0.598145	0.228516	-0.374023	0.051270	-0.033905	0.075815	0.194653	-0.266358	0.149520	-0.932098	-25.181267	-25.997627	-150.505372
00888		5.298612	-4.158295	7.222163	-1.326578	0.044536	-0.026753	0.031622	0.203452	0.080008	-0.596436	0.239258	-0.372803	0.053076	-0.041573	0.072161	0.194915	-0.265321	0.149677	-0.932314	-25.159283	-25.872869	-150.514394
00889		5.080639	-4.046069	7.273498	-1.075905	0.055594	-0.121112	0.075272	0.233481	0.074244	-0.594971	0.237793	-0.364258	0.050906	-0.040469	0.072660	0.194729	-0.266459	0.148605	-0.932200	-25.077328	-26.034398	-150.515402
00890		5.191566	-3.663110	7.540833	-0.930118	-0.381172	-0.003282	0.080933	0.230484	0.069616	-0.593506	0.242432	-0.368652	0.052015	-0.036644	0.075334	0.194989	-0.265256	0.148545	-0.932498	-25.021388	-25.898142	-150.537430
00891		5.344459	-3.370917	7.518732	-0.962220	-0.680328	-0.062360	0.070485	0.225267	0.085185	-0.587646	0.237305	-0.375977	0.053544	-0.033713	0.075115	0.194880	-0.266316	0.147589	-0.932371	-24.951858	-26.045602	-150.529640
00892		5.050822	-3.262900	7.597841	-0.680468	-0.665557	-0.170153	0.050859	0.210349	0.094367	-0.593994	0.241211	-0.381836	0.050603	-0.032624	0.075917	0.195231	-0.265219	0.147682	-0.932595	-24.921905	-25.913819	-150.531661
00893		4.746280	-3.104892	7.815357	-0.258979	-0.689643	-0.184364	0.031838	0.198204	0.101005	-0.593018	0.246826	-0.376221	0.047556	-0.031037	0.078102	0.195186	-0.266321	0.146942	-0.932407	-24.882157	-26.057793	-150.508562
00894		4.705434	-2.993089	7.865438	-0.185489	-0.788018	-0.204910	0.004387	0.176272	0.111206	-0.587891	0.248535	-0.378174	0.047140	-0.029906	0.078612	0.195579	-0.265416	0.147242	-0.932536	-24.887160	-25.939690	-150.491574
00895		4.633426	-3.153238	7.970442	-0.096046	-0.619842	-0.089208	-0.028162	0.147703	0.115455	-0.589355	0.242188	-0.389160	0.046411	-0.031494	0.079675	0.195583	-0.266662	0.146777	-0.932253	-24.888764	-26.089731	-150.448890
00896		4.676559	-3.517660	7.800548	-0.338941	-0.302004	-0.071714	-0.055285	0.103314	0.105791	-0.588135	0.248047	-0.381104	0.046824	-0.035130	0.077991	0.195926	-0.266159	0.147276	-0.932246	-24.935172	-26.010870	-150.415494
00897		4.857153	-3.555909	7.799152	-0.463612	-0.337058	0.022690	-0.065671	0.047560	0.096703	-0.584473	0.244385	-0.391113	0.048607	-0.035510	0.077992	0.195889	-0.267789	0.146906	-0.931845	-24.965276	-26.200954	-150.358435
00898		5.072319	-3.520644	7.661724	-0.699347	-0.451907	-0.007992	-0.073526	0.027231	0.086736	-0.586182	0.236328	-0.381104	0.050749	-0.035156	0.076623	0.196173	-0.267673	0.147391	-0.931742	-25.026351	-26.166199	-150.315633
00899		4.851490	-3.568175	7.646632	-0.517657	-0.298721	-0.097617	-0.078806	0.016874	0.085216	-0.583740	0.249756	-0.380371	0.048537	-0.035631	0.076476	0.196103	-0.269365	0.147087	-0.931317	-25.066867	-26.361918	-150.257701
00900		4.838103	-3.714174	7.557636	-0.597628	-0.159787	-0.120552	-0.072782	0.005147	0.073343	-0.585693	0.251953	-0.383057	0.048397	-0.037096	0.075589	0.196342	-0.269362	0.147529	-0.931198	-25.126837	-26.341837	-150.216673
00901		4.901650	-3.720694	7.585632	-0.602135	-0.175935	-0.064969	-0.067896	0.009134	0.065146	-0.584961	0.252197	-0.378174	0.049032	-0.037165	0.075867	0.196214	-0.270995	0.147196	-0.930803	-25.159935	-26.533590	-150.168725
00902		4.844318	-3.533776	7.572081	-0.510428	-0.321173	-0.172785	-0.069618	0.006108	0.051217	-0.585205	0.252686	-0.389160	0.048455	-0.035299	0.075732	0.196352	-0.271001	0.147594	-0.930710	-25.212369	-26.518377	-150.140757
00903		4.979973	-3.355763	7.687725	-0.469237	-0.546368	-0.084188	-0.072891	-0.006155	0.046800	-0.578857	0.250244	-0.379883	0.049805	-0.033518	0.076891	0.196159	-0.272633	0.147294	-0.930321	-25.247983	-26.710723	-150.099750
00904		4.478142	-3.601211	7.700982	-0.138926	-0.117686	-0.205688	-0.094996	-0.020787	0.047726	-0.577148	0.250977	-0.383057	0.044782	-0.035965	0.077032	0.196265	-0.272791	0.147780	-0.930175	-25.317442	-26.710282	-150.066426
00905		4.439339	-3.659622	7.668289	-0.112185	-0.033998	-0.226788	-0.093763	-0.038285	0.037898	-0.579102	0.259766	-0.377197	0.044386	-0.036552	0.076709	0.196041	-0.274503	0.147570	-0.929752	-25.367455	-26.909311	-150.022726
00906		4.400283	-3.678093	7.696252	-0.063429	-0.012345	-0.214824	-0.094824	-0.064893	0.027611	-0.580566	0.253906	-0.388672	0.043983	-0.036738	0.076994	0.196085	-0.274881	0.147984	-0.929565	-25.437166	-26.936606	-149.988861
00907		4.747709	-3.733702	7.587378	-0.374954	-0.089075	-0.122432	-0.088864	-0.083891	0.007920	-0.580322	0.263184	-0.379639	0.047447	-0.037301	0.075910	0.195779	-0.276716	0.147715	-0.929128	-25.484187	-27.153129	-149.950657
00908		4.998955	-3.777697	7.554200	-0.588618	-0.161170	-0.017075	-0.083473	-0.091506	0.004793	-0.573730	0.262695	-0.383789	0.049956	-0.037744	0.075581	0.195752	-0.277223	0.148019	-0.928934	-25.544902	-27.199785	-149.922537
00909		4.975073	-3.730103	7.453325	-0.579867	-0.163525	-0.124856	-0.078507	-0.098154	-0.000254	-0.575928	0.260254	-0.380371	0.049714	-0.037272	0.074572	0.195445	-0.279046	0.147720	-0.928501	-25.588234	-27.415874	-149.885251
00910		5.111971	-3.825653	7.420746	-0.719198	-0.137502	-0.050558	-0.064504	-0.091361	-0.008256	-0.583252	0.265869	-0.380127	0.051084	-0.038235	0.074243	0.195382	-0.279543	0.147918	-0.928333	-25.634744	-27.465670	-149.864615
00911		5.202974	-3.721792	7.319992	-0.785740	-0.239092	-0.126078	-0.043084	-0.086792	-0.014475	-0.579834	0.261230	-0.378174	0.051995	-0.037206	0.073231	0.195060	-0.281228	0.147487	-0.927960	-25.655245	-27.671337	-149.838705
00912		5.098774	-3.796514	7.386397	-0.679987	-0.137386	-0.092162	-0.026709	-0.064922	-0.018784	-0.584229	0.263184	-0.385742	0.050960	-0.037960	0.073886	0.194981	-0.281573	0.147520	-0.927867	-25.673925	-27.710100	-149.831521
00913		4.918930	-3.686434	7.451337	-0.446271	-0.149872	-0.164554	-0.013447	-0.059557	-0.019671	-0.571289	0.273682	-0.381348	0.049163	-0.036864	0.074530	0.194666	-0.283055	0.147006	-0.927564	-25.674897	-27.896071	-149.816227
00914		4.921871	-3.647245	7.510085	-0.397832	-0.193510	-0.131114	-0.011591	-0.049475	-0.021113	-0.586670	0.264893	-0.383789	0.049196	-0.036473	0.075115	0.194586	-0.283316	0.146981	-0.927505	-25.682280	-27.927459	-149.814722
00915		5.089214	-3.529468	7.494808	-0.475897	-0.354818	-0.108203	-0.019168	-0.060763	-0.012277	-0.577148	0.267578	-0.380127	0.050867	-0.035291	0.074967	0.194309	-0.284741	0.146534	-0.927197	-25.689900	-28.104146	-149.795184
00916		4.694501	-3.612914	7.732873	-0.052397	-0.144567	-0.072813	-0.035497	-0.057865	0.002989	-0.574219	0.263672	-0.378906	0.046923	-0.036115	0.077349	0.194313	-0.285046	0.146645	-0.927085	-25.718754	-28.133901	-149.777189
00917		4.883625	-3.613379	7.673885	-0.204609	-0.207838	-0.029552	-0.051937	-0.069089	0.004161	-0.579590	0.271484	-0.384033	0.048810	-0.036113	0.076765	0.194083	-0.286464	0.146389	-0.926736	-25.751026	-28.302773	-149.746335
00918		4.705226	-3.546904	7.676119	-0.040983	-0.190635	-0.137748	-0.065573	-0.065774	0.012475	-0.577148	0.263672	-0.373779	0.047029	-0.035441	0.076788	0.194093	-0.286829	0.146645	-0.926581	-25.800900	-28.334249	-149.720467
00919		5.000266	-3.683354	7.443595	-0.413789	-0.156190	-0.128616	-0.069756	-0.058580	0.007353	-0.568604	0.275879	-0.384521	0.049982	-0.036806	0.074463	0.193857	-0.288147	0.146508	-0.926243	-25.842974	-28.488656	-149.691392
00920		4.967274	-3.614415	7.275615	-0.461715	-0.179175	-0.303371	-0.061357	-0.048345	0.005390	-0.576172	0.285889	-0.386230	0.049656	-0.036120	0.072779	0.193827	-0.288431	0.146752	-0.926122	-25.886201	-28.512906	-149.674540
00921		4.916583	-3.838031	7.264246	-0.469192	0.050500	-0.249746	-0.039064	-0.030401	-0.001502	-0.574463	0.274902	-0.387695	0.049154	-0.038366	0.072657	0.193582	-0.289548	0.146512	-0.925863	-25.905568	-28.648776	-149.658857
00922		5.181847	-3.725800	7.283708	-0.624430	-0.170306	-0.150048	-0.020861	-0.015920	-0.010391	-0.569336	0.281006	-0.393066	0.051811	-0.037253	0.072845	0.193513	-0.289655	0.146577	-0.925834	-25.916771	-28.660279	-149.660478
00923		4.948296	-3.729714	7.451512	-0.331343	-0.080240	-0.127379	-0.012400	0.001149	-0.006043	-0.583252	0.279785	-0.386719	0.049482	-0.037294	0.074517	0.193271	-0.290562	0.146267	-0.925649	-25.917106	-28.775473	-149.656393
00924		5.036593	-3.742817	7.432954	-0.412706	-0.105200	-0.094490	-0.005557	0.011439	-0.006231	-0.578369	0.280762	-0.386230	0.050369	-0.037428	0.074328	0.193223	-0.290524	0.146293	-0.925667	-25.916950	-28.771860	-149.663386
00925		4.803486	-3.697080	7.514232	-0.161049	-0.045578	-0.159835	0.001175	0.015780	-0.009652	-0.571289	0.277344	-0.384521	0.048039	-0.036974	0.075138	0.192983	-0.291309	0.145952	-0.925524	-25.907417	-28.874579	-149.665847
00926		5.000262	-3.710238	7.471392	-0.340067	-0.113690	-0.093551	0.006650	0.014130	-0.009579	-0.576172	0.279297	-0.387939	0.050006	-0.037107	0.074709	0.192936	-0.291250	0.145919	-0.925558	-25.898929	-28.870439	-149.675587
00927		4.768294	-3.689776	7.511522	-0.121896	-0.025764	-0.181565	0.005579	0.012326	-0.008975	-0.578369	0.286621	-0.389648	0.047686	-0.036902	0.075111	0.192717	-0.291999	0.145578	-0.925421	-25.888104	-28.968805	-149.677031
00928		4.673248	-3.730397	7.507389	-0.064771	0.053906	-0.215349	0.013271	0.012524	-0.016235	-0.577637	0.281494	-0.388428	0.046734	-0.037313	0.075068	0.192650	-0.291946	0.145503	-0.925463	-25.874125	-28.967176	-149.690242
00929		4.573325	-3.837740	7.459127	-0.034788	0.211013	-0.260913	0.016942	0.007933	-0.030093	-0.577881	0.286865	-0.384521	0.045730	-0.038391	0.074586	0.192364	-0.292670	0.145095	-0.925358	-25.851864	-29.066690	-149.703298
00930		4.968861	-3.748358	7.388207	-0.352021	-0.027490	-0.158636	0.030495	-0.001759	-0.043197	-0.571289	0.283936	-0.389893	0.049680	-0.037506	0.073877	0.192208	-0.292686	0.144887	-0.925418	-25.822241	-29.079173	-149.728350
00931		5.080862	-3.670317	7.317151	-0.445040	-0.121856	-0.189062	0.030431	-0.008591	-0.049497	-0.577148	0.287354	-0.392090	0.050796	-0.036727	0.073168	0.191874	-0.293445	0.144397	-0.925324	-25.789985	-29.186348	-149.748334
00932		4.963533	-3.589336	7.525589	-0.208624	-0.168321	-0.113068	0.028394	-0.030581	-0.054546	-0.574951	0.288086	-0.392090	0.049614	-0.035918	0.075258	0.191683	-0.293605	0.144154	-0.925350	-25.762233	-29.216528	-149.771915
00933		5.123116	-3.753952	7.346454	-0.464567	-0.051384	-0.112667	0.019676	-0.057801	-0.059233	-0.572754	0.299805	-0.392822	0.051199	-0.037562	0.073476	0.191331	-0.294576	0.143665	-0.925191	-25.740359	-29.347299	-149.783977
00934		4.867041	-3.753817	7.599443	-0.114003	0.029503	-0.039414	0.027472	-0.075544	-0.071235	-0.577881	0.295166	-0.398438	0.048628	-0.037566	0.076008	0.191093	-0.294956	0.143359	-0.925166	-25.714484	-29.404842	-149.804681
00935		4.858554	-3.910780	7.526784	-0.175122	0.200428	-0.041231	0.049615	-0.079396	-0.101653	-0.572754	0.297607	-0.395996	0.048536	-0.039151	0.075277	0.190612	-0.295995	0.142666	-0.925041	-25.666727	-29.552940	-149.835979
00936		4.508796	-3.695454	7.847350	0.345770	0.127291	-0.043821	0.067609	-0.100251	-0.123499	-0.582764	0.297119	-0.395508	0.045026	-0.037009	0.078484	0.190210	-0.296489	0.142073	-0.925057	-25.605856	-29.636194	-149.880837
00937		4.892830	-3.443552	7.874293	0.162307	-0.246370	0.072415	0.045785	-0.148649	-0.124342	-0.577393	0.289063	-0.396729	0.048848	-0.034484	0.078771	0.189677	-0.297822	0.141318	-0.924853	-25.563557	-29.819846	-149.906503
00938		5.378339	-3.276675	7.432845	-0.408810	-0.525164	-0.093256	0.035778	-0.208222	-0.124482	-0.576904	0.293213	-0.387207	0.053686	-0.032813	0.074379	0.189299	-0.298846	0.140767	-0.924685	-25.535628	-29.959118	-149.921450
00939		5.395613	-3.141747	7.458050	-0.341518	-0.635657	-0.112946	0.023357	-0.211170	-0.104477	-0.582275	0.299805	-0.399902	0.053861	-0.031454	0.074634	0.188873	-0.300444	0.140086	-0.924357	-25.519469	-30.166707	-149.918450
00940		5.734796	-3.142501	7.257398	-0.699395	-0.740705	-0.096968	0.005227	-0.186982	-0.093601	-0.571533	0.303711	-0.396484	0.057265	-0.031454	0.072627	0.188577	-0.301375	0.139742	-0.924167	-25.515145	-30.287387	-149.921127
00941		5.434454	-3.633069	7.034972	-0.714630	-0.125180	-0.236836	0.013116	-0.153168	-0.094202	-0.587646	0.302002	-0.398926	0.054274	-0.036361	0.070389	0.188143	-0.302693	0.139171	-0.923910	-25.498066	-30.461222	-149.929323
00942		5.143384	-4.184790	7.086005	-0.599219	0.495303	-0.139325	0.022704	-0.116981	-0.105593	-0.588623	0.302734	-0.406738	0.051370	-0.041883	0.070885	0.187768	-0.303293	0.138794	-0.923847	-25.469848	-30.548672	-149.959318
00943		5.195053	-4.437805	6.845673	-0.834062	0.751212	-0.206130	0.069587	-0.059157	-0.127961	-0.588135	0.296875	-0.399902	0.051902	-0.044435	0.068457	0.187204	-0.304132	0.138022	-0.923801	-25.398584	-30.679725	-150.014213
00944		4.994533	-3.696222	7.306967	-0.207742	0.124748	-0.224129	0.094132	0.035298	-0.121043	-0.587646	0.305176	-0.396240	0.049936	-0.037027	0.073043	0.186760	-0.303972	0.137434	-0.924031	-25.302293	-30.692078	-150.097243
00945		5.432959	-3.553817	7.183199	-0.571624	-0.156171	-0.148638	0.093945	0.097739	-0.089483	-0.590332	0.307129	-0.401611	0.054349	-0.035596	0.071789	0.186310	-0.304017	0.136783	-0.924204	-25.208597	-30.729056	-150.173081
00946		5.700675	-3.609207	7.183600	-0.797437	-0.211457	0.008083	0.101504	0.109721	-0.073683	-0.595215	0.307861	-0.401367	0.057033	-0.036150	0.071786	0.186046	-0.303473	0.136302	-0.924507	-25.111838	-30.691059	-150.248699
00947		5.667109	-3.256116	7.264340	-0.634236	-0.510042	-0.074791	0.099397	0.114740	-0.060058	-0.592773	0.297363	-0.400879	0.056703	-0.032614	0.072595	0.185732	-0.303405	0.135694	-0.924682	-25.022193	-30.710534	-150.311404
00948		5.870105	-3.160793	7.252801	-0.779837	-0.672640	-0.015174	0.081471	0.085308	-0.044979	-0.595215	0.319580	-0.404541	0.058725	-0.031651	0.072490	0.185587	-0.302973	0.135326	-0.924906	-24.949361	-30.678093	-150.362668
00949		5.363313	-3.032875	7.631764	-0.135473	-0.613031	-0.024271	0.060990	0.060089	-0.024261	-0.587158	0.311768	-0.410889	0.053652	-0.030359	0.076292	0.185418	-0.303164	0.134894	-0.924941	-24.899719	-30.716725	-150.388706
00950		5.449403	-3.308229	7.585146	-0.304643	-0.392485	0.083168	0.034337	0.005795	-0.027718	-0.590820	0.317871	-0.415771	0.054492	-0.033103	0.075844	0.185335	-0.303132	0.134696	-0.924997	-24.870624	-30.721394	-150.407181
00951		5.058881	-3.122433	7.862246	0.216643	-0.420907	0.032752	0.011558	-0.069770	-0.045136	-0.590820	0.312988	-0.412354	0.050554	-0.031240	0.078638	0.185084	-0.303963	0.134337	-0.924826	-24.859972	-30.830422	-150.410214
00952		5.232416	-3.112695	7.827053	0.079316	-0.492494	0.090895	-0.019113	-0.161682	-0.058762	-0.592773	0.316650	-0.415527	0.052252	-0.031135	0.078316	0.184889	-0.304776	0.134184	-0.924620	-24.875920	-30.929647	-150.400508
00953		4.933687	-3.199232	7.862223	0.330668	-0.281608	-0.004415	-0.054014	-0.258167	-0.060764	-0.594971	0.320313	-0.406250	0.049226	-0.031986	0.078694	0.184596	-0.306519	0.133925	-0.924140	-24.923425	-31.137198	-150.361001
00954		4.598972	-3.268327	8.140108	0.763279	-0.108979	0.061485	-0.086080	-0.340985	-0.058811	-0.594238	0.317139	-0.408691	0.045841	-0.032662	0.081493	0.184418	-0.308221	0.133915	-0.923611	-25.004190	-31.329576	-150.300388
00955		4.833095	-3.415807	7.865742	0.428625	-0.028351	0.021527	-0.128451	-0.423857	-0.062795	-0.609863	0.320801	-0.405762	0.048153	-0.034123	0.078782	0.184116	-0.310758	0.133845	-0.922831	-25.117408	-31.618996	-150.215327
00956		4.651139	-3.264804	7.819795	0.620904	-0.075782	-0.166458	-0.180445	-0.498951	-0.075084	-0.611572	0.331787	-0.408447	0.046304	-0.032595	0.078343	0.183819	-0.313284	0.134098	-0.921999	-25.271998	-31.897050	-150.118073
00957		4.264507	-3.778913	7.897954	0.888952	0.548709	-0.130116	-0.212544	-0.644051	-0.097171	-0.612305	0.331787	-0.395752	0.042372	-0.037726	0.079156	0.183377	-0.316894	0.134163	-0.920843	-25.457185	-32.304166	-149.988929
00958		3.492877	-4.730858	7.870360	1.269840	1.744532	-0.227945	-0.211706	-0.841511	-0.185914	-0.616699	0.341797	-0.396973	0.034553	-0.047257	0.078900	0.182745	-0.321092	0.134067	-0.919527	-25.649848	-32.786181	-149.856296
00959		3.796253	-4.579604	8.014351	1.279475	1.490703	-0.027299	-0.229073	-1.046678	-0.361951	-0.635010	0.337891	-0.391357	0.037459	-0.045772	0.080393	0.181332	-0.326677	0.133445	-0.917929	-25.827069	-33.458784	-149.766147
00960		4.194605	-4.659793	7.717898	0.897224	1.472566	-0.019867	-0.222207	-1.254014	-0.526208	-0.638428	0.329102	-0.388184	0.041338	-0.046621	0.077491	0.179383	-0.332986	0.132463	-0.916185	-25.982990	-34.237900	-149.714815
00961		4.478608	-4.252161	8.031578	1.142742	1.007333	0.203410	-0.199206	-1.475019	-0.668521	-0.640137	0.332275	-0.363525	0.044050	-0.042589	0.080685	0.176895	-0.340625	0.130839	-0.914092	-26.116719	-35.200238	-149.678913
00962		4.864582	-4.191139	7.976556	1.007158	0.872032	0.340022	-0.149327	-1.653875	-0.769326	-0.648682	0.323730	-0.364746	0.047822	-0.042037	0.080195	0.174196	-0.348813	0.128740	-0.911817	-26.218268	-36.246216	-149.651550
00963		5.289535	-3.680138	8.123105	1.104279	0.306336	0.492207	-0.132159	-1.722944	-0.838600	-0.670410	0.322021	-0.352783	0.052038	-0.036967	0.081706	0.171189	-0.357532	0.126300	-0.909348	-26.300277	-37.372886	-149.641104
00964		6.022285	-3.237139	8.256487	0.973326	-0.315274	0.858124	-0.175395	-1.735642	-0.858168	-0.679932	0.318115	-0.341553	0.059364	-0.032555	0.083111	0.168059	-0.366107	0.124069	-0.906823	-26.401365	-38.483374	-149.640162
00965		6.855371	-2.473360	8.766899	1.127756	-1.307737	1.456142	-0.330340	-1.669416	-0.805324	-0.692139	0.311035	-0.325928	0.067719	-0.024862	0.088278	0.164781	-0.374625	0.122610	-0.904141	-26.601746	-39.569936	-149.620580
00966		7.018858	-2.708765	9.139123	1.429431	-1.134009	1.883163	-0.630819	-1.468923	-0.699178	-0.701416	0.306152	-0.313477	0.069420	-0.027042	0.091988	0.161330	-0.382208	0.122934	-0.901542	-26.981446	-40.502920	-149.592212
00967		6.328433	-3.978395	10.039032	2.477778	0.218922	2.453877	-1.020732	-1.128006	-0.498802	-0.703857	0.308105	-0.306152	0.062617	-0.039426	0.100947	0.157764	-0.388563	0.125562	-0.899090	-27.596329	-41.230345	-149.538550
00968		0.650821	-7.650679	11.368016	6.619805	5.558355	0.839469	-1.153638	-0.601973	-0.167327	-0.702881	0.311279	-0.300293	0.006101	-0.075855	0.114138	0.155142	-0.392284	0.129943	-0.897307	-28.325232	-41.581081	-149.435878
00969		0.154880	-11.235453	11.830511	6.766730	8.886361	2.081123	-0.848742	-0.199203	0.242514	-0.705322	0.315918	-0.294434	0.001566	-0.111849	0.118782	0.154673	-0.393707	0.134021	-0.896164	-28.962831	-41.620411	-149.202656
00970		-0.653783	-9.878036	13.259665	8.614063	7.692752	2.038061	-0.302036	0.421411	0.427937	-0.707031	0.309570	-0.288818	-0.006047	-0.098593	0.132759	0.155709	-0.391771	0.136539	-0.896452	-29.221451	-41.291353	-149.073423
00971		-2.876221	-5.515034	12.737868	10.360194	4.549959	-1.274301	-0.224646	0.868721	0.528729	-0.695801	0.322021	-0.298096	-0.028063	-0.055082	0.127563	0.157104	-0.387517	0.139369	-0.897622	-29.374454	-40.684719	-149.044269
00972		-1.590735	-5.594457	12.938856	9.585121	4.010599	-0.154524	-0.252322	1.203265	0.408149	-0.687988	0.319824	-0.301025	-0.015014	-0.055812	0.129551	0.157602	-0.382030	0.142231	-0.899436	-29.404797	-39.970396	-149.220787
00973		-0.418273	-5.288743	13.372429	9.061361	3.100349	0.922414	-0.187925	1.665622	0.286043	-0.685303	0.316406	-0.306885	-0.002993	-0.052767	0.133802	0.157451	-0.374079	0.145098	-0.902341	-29.246399	-39.006098	-149.644602
00974		-0.446339	-5.000097	12.385347	8.267984	2.867526	0.287251	-0.211952	2.074967	0.182041	-0.667236	0.309814	-0.324951	-0.003132	-0.049873	0.123943	0.156359	-0.364741	0.148017	-0.905874	-28.980741	-37.917781	-150.266944
00975		0.284955	-4.910988	11.651388	7.077993	2.475954	0.371563	-0.207339	2.373588	0.061839	-0.666016	0.313232	-0.326172	0.004248	-0.048988	0.116520	0.154638	-0.353513	0.151112	-0.910099	-28.621538	-36.635991	-151.058742
00976		1.417174	-5.276310	10.425698	5.175373	2.444612	0.472062	-0.208830	2.631162	-0.021978	-0.652588	0.300781	-0.351318	0.015536	-0.052656	0.104114	0.152164	-0.341696	0.154042	-0.914528	-28.212334	-35.317125	-151.958947
00977		2.391819	-4.860947	8.819586	3.246403	1.866148	-0.163430	-0.195610	2.709931	-0.079006	-0.638916	0.293945	-0.359375	0.025091	-0.048533	0.087909	0.149533	-0.328805	0.157075	-0.919160	-27.791893	-33.881163	-152.900670
00978		4.342573	-4.095728	7.986319	1.183126	0.509129	0.074214	-0.295510	2.600688	-0.060966	-0.626953	0.283447	-0.375000	0.044447	-0.040853	0.079350	0.146708	-0.317101	0.160261	-0.923168	-27.488034	-32.578327	-153.764095
00979		5.888718	-3.975346	6.900470	-0.873771	-0.030089	0.052847	-0.391683	2.415983	-0.003337	-0.615723	0.280762	-0.383545	0.059715	-0.039620	0.068364	0.144291	-0.305518	0.164062	-0.926781	-27.315871	-31.261882	-154.522492
00980		7.143905	-3.524900	6.283179	-2.339176	-0.817070	0.025813	-0.385009	2.134818	0.042489	-0.604980	0.273438	-0.393311	0.072112	-0.035114	0.062132	0.142137	-0.295858	0.167439	-0.929639	-27.216404	-30.164440	-155.149148
00981		9.448314	-3.647815	6.728163	-4.104964	-1.696861	1.505948	-0.426414	1.885266	0.140618	-0.605957	0.269287	-0.400879	0.095138	-0.036269	0.066464	0.140725	-0.286633	0.171186	-0.932059	-27.224655	-29.087049	-155.639027
00982		10.324006	-3.762758	5.963335	-5.450685	-1.777347	1.297323	-0.441443	1.728127	0.307575	-0.587158	0.270752	-0.397705	0.103808	-0.037338	0.058821	0.140038	-0.278623	0.174891	-0.933901	-27.315572	-28.127136	-155.977408
00983		10.394672	-3.259395	4.791030	-6.258777	-2.023767	0.104787	-0.429101	1.483002	0.450043	-0.581299	0.260254	-0.408691	0.104371	-0.032258	0.047207	0.140361	-0.271091	0.178747	-0.935338	-27.482337	-27.190233	-156.162539
00984		11.214360	-3.131304	3.954327	-7.493446	-2.275829	-0.332690	-0.406944	1.212787	0.558784	-0.577881	0.270020	-0.416016	0.112468	-0.030919	0.038925	0.141333	-0.265206	0.182253	-0.936202	-27.696251	-26.426990	-156.205235
00985		11.836942	-2.533835	3.441133	-8.287356	-2.965231	-0.818231	-0.326121	0.983134	0.636082	-0.571289	0.265381	-0.407227	0.118616	-0.024906	0.033870	0.143066	-0.259909	0.185472	-0.936792	-27.919996	-25.714809	-156.139008
00986		11.620250	-1.657306	2.882401	-8.332633	-3.577205	-1.821776	-0.237369	0.784977	0.641760	-0.574219	0.272217	-0.419189	0.116367	-0.016166	0.028387	0.145031	-0.255810	0.187975	-0.937119	-28.109892	-25.145908	-156.013523
00987		11.133460	-0.680601	2.623784	-7.947691	-4.247436	-2.734963	-0.144484	0.575664	0.537730	-0.561523	0.269287	-0.425537	0.111427	-0.006488	0.025922	0.146869	-0.252553	0.189865	-0.937335	-28.254608	-24.688412	-155.884298
00988		10.895418	-0.203789	2.644986	-7.683428	-4.625078	-3.080607	-0.055589	0.371670	0.383904	-0.559570	0.267578	-0.423096	0.109007	-0.001821	0.026248	0.148242	-0.250493	0.190881	-0.937466	-28.328808	-24.397500	-155.782364
00989		10.545363	-0.144895	2.514462	-7.467249	-4.533023	-3.390850	0.041323	0.198840	0.221035	-0.566406	0.281006	-0.418945	0.105480	-0.001338	0.025039	0.149145	-0.249330	0.191152	-0.937577	-28.336647	-24.237089	-155.717348
00990		10.161389	-0.077023	2.444564	-7.177299	-4.439449	-3.647194	0.124684	-0.001873	0.087138	-0.566895	0.283203	-0.423096	0.101614	-0.000741	0.024446	0.149708	-0.249169	0.190673	-0.937628	-28.285214	-24.215208	-155.668622
00991		9.863438	-0.238476	2.463942	-6.939499	-4.192058	-3.673856	0.197624	-0.224072	-0.009859	-0.568115	0.268311	-0.423828	0.098607	-0.002414	0.024748	0.150089	-0.250239	0.189543	-0.937511	-28.199881	-24.349869	-155.605136
00992		9.567320	-0.336263	2.658071	-6.588102	-4.044594	-3.571693	0.263105	-0.437904	-0.091210	-0.576660	0.259033	-0.422119	0.095613	-0.003441	0.026786	0.150403	-0.252187	0.187864	-0.937277	-28.082020	-24.596621	-155.525783
00993		10.017837	-0.671305	3.419919	-6.579573	-4.115960	-2.582801	0.320260	-0.612718	-0.152068	-0.587891	0.267334	-0.412109	0.100068	-0.006844	0.034495	0.150604	-0.255244	0.185630	-0.936862	-27.939581	-24.982631	-155.426328
00994		10.043023	-0.769319	4.117666	-6.196345	-4.209145	-1.919829	0.334834	-0.690216	-0.181666	-0.579102	0.271484	-0.419189	0.100280	-0.007854	0.041510	0.150818	-0.258399	0.183307	-0.936420	-27.791378	-25.381776	-155.323795
00995		10.173217	-0.867914	4.634277	-5.978590	-4.279365	-1.347052	0.336386	-0.735560	-0.229896	-0.589111	0.270996	-0.416016	0.101551	-0.008874	0.046702	0.150756	-0.262195	0.180746	-0.935873	-27.634657	-25.865831	-155.233166
00996		9.661272	-0.538650	4.635943	-5.437416	-4.346949	-1.648121	0.328242	-0.739500	-0.309061	-0.583740	0.285400	-0.412842	0.096432	-0.005612	0.046707	0.150404	-0.265692	0.178243	-0.935423	-27.465676	-26.324310	-155.189809
00997		9.027051	-0.358424	4.706040	-4.781806	-4.242145	-1.881692	0.290143	-0.787450	-0.455558	-0.587402	0.279297	-0.411377	0.090076	-0.003858	0.047410	0.149240	-0.270050	0.175499	-0.934880	-27.281787	-26.907146	-155.215065
00998		8.729663	-0.631061	4.958718	-4.387359	-3.898855	-1.643036	0.226968	-0.845269	-0.596086	-0.596191	0.275635	-0.416748	0.087067	-0.006627	0.049948	0.147497	-0.274359	0.172997	-0.934368	-27.109370	-27.494961	-155.307795
00999		8.530830	-1.246663	5.104763	-4.177453	-3.242805	-1.302702	0.189985	-0.885513	-0.707352	-0.601074	0.272217	-0.410156	0.085036	-0.012816	0.051412	0.145075	-0.279519	0.170243	-0.933723	-26.921907	-28.202576	-155.454885
01000		8.088850	-1.598226	5.276208	-3.711313	-2.737798	-1.178358	0.179801	-0.933283	-0.761185	-0.605957	0.275391	-0.405029	0.080579	-0.016337	0.053124	0.142562	-0.284396	0.167658	-0.933105	-26.738477	-28.877599	-155.623212
01001		7.648422	-1.948643	5.421265	-3.243580	-2.220174	-1.081452	0.172556	-0.990812	-0.768002	-0.608398	0.273438	-0.406982	0.076139	-0.019826	0.054573	0.139895	-0.290137	0.164778	-0.932254	-26.549580	-29.660510	-155.782689
01002		7.720708	-2.317577	5.833486	-3.030480	-1.931889	-0.534073	0.224322	-1.023355	-0.755207	-0.626465	0.283447	-0.397705	0.076819	-0.023532	0.058702	0.137537	-0.295375	0.161915	-0.931462	-26.348077	-30.379269	-155.928570
01003		7.644483	-2.157151	6.112707	-2.674100	-2.030618	-0.369115	0.254316	-1.011540	-0.698896	-0.631348	0.277344	-0.410400	0.076058	-0.021916	0.061485	0.135308	-0.301102	0.158708	-0.930506	-26.127293	-31.158349	-156.049645
01004		7.402837	-1.954304	6.130644	-2.351084	-2.062733	-0.516322	0.282776	-1.010906	-0.657827	-0.636963	0.278076	-0.406494	0.073652	-0.019873	0.061651	0.133469	-0.306139	0.155712	-0.929634	-25.913387	-31.845318	-156.148957
01005		7.240770	-1.698832	6.355503	-1.947873	-2.207493	-0.483231	0.324126	-0.989542	-0.656349	-0.651123	0.294678	-0.403564	0.072036	-0.017328	0.063884	0.131508	-0.311674	0.152229	-0.928650	-25.653979	-32.604246	-156.260161
01006		7.100203	-2.028931	6.265702	-1.858009	-1.763008	-0.473152	0.347715	-0.962243	-0.665851	-0.656006	0.287354	-0.408936	0.070631	-0.020634	0.062962	0.129685	-0.316423	0.148938	-0.927834	-25.385543	-33.267333	-156.387458
01007		6.824094	-2.607247	6.058212	-1.766231	-1.010725	-0.543078	0.435239	-0.957266	-0.664476	-0.669678	0.287598	-0.401367	0.067863	-0.026431	0.060850	0.127822	-0.321722	0.144919	-0.926906	-25.044326	-34.011904	-156.524609
01008		6.204521	-2.502981	6.182802	-1.120560	-0.845399	-0.811765	0.476134	-0.988539	-0.629298	-0.674316	0.285156	-0.410156	0.061659	-0.025372	0.062073	0.126382	-0.326459	0.141062	-0.926042	-24.710750	-34.678675	-156.632317
01009		5.491449	-3.175847	6.094904	-0.642325	0.110630	-1.039771	0.432608	-1.044278	-0.562169	-0.697510	0.291748	-0.405762	0.054506	-0.032044	0.061165	0.125040	-0.332057	0.137154	-0.924820	-24.413156	-35.442587	-156.691241
01010		4.946198	-4.127756	6.072170	-0.300860	1.246509	-1.053164	0.431834	-1.108415	-0.466626	-0.705078	0.281250	-0.388672	0.049028	-0.041524	0.060905	0.124353	-0.337236	0.133683	-0.923546	-24.178347	-36.132741	-156.669658
01011		4.502754	-4.785076	6.094341	0.042373	2.068155	-1.093007	0.416584	-1.180753	-0.300036	-0.721924	0.289063	-0.395752	0.044595	-0.048045	0.061108	0.124286	-0.343247	0.130215	-0.921834	-24.011671	-36.903270	-156.525397
01012		4.330713	-5.728236	6.099357	0.120025	3.056094	-0.901173	0.360314	-1.268972	-0.083249	-0.728271	0.299072	-0.383789	0.042896	-0.057410	0.061163	0.125340	-0.348929	0.127617	-0.919920	-23.996872	-37.588252	-156.208738
01013		4.411568	-6.111646	6.093286	0.093294	3.430119	-0.748071	0.254149	-1.359538	0.191368	-0.743164	0.304443	-0.380859	0.043759	-0.061152	0.061153	0.127376	-0.355485	0.125678	-0.917394	-24.167784	-38.332352	-155.679343
01014		4.297548	-6.373532	5.993040	0.148772	3.738090	-0.812056	0.120326	-1.432253	0.436910	-0.752686	0.313721	-0.380615	0.042684	-0.063678	0.060198	0.130486	-0.361704	0.124983	-0.914616	-24.551891	-38.978126	-154.954039
01015		3.411386	-5.797108	5.643874	0.702853	3.535426	-1.806216	-0.064527	-1.501656	0.620850	-0.766357	0.322021	-0.359863	0.033868	-0.057847	0.056712	0.134011	-0.368772	0.125233	-0.911244	-25.149935	-39.681300	-154.064282
01016		2.631533	-6.598708	5.361597	1.000773	4.558564	-2.234302	-0.379262	-1.658302	0.759388	-0.772217	0.331787	-0.347412	0.026119	-0.065786	0.053958	0.137799	-0.376101	0.127241	-0.907397	-26.041272	-40.351765	-153.016063
01017		18.550757	-20.872238	33.545742	8.018390	8.897145	32.158846	1.634653	0.369335	0.798017	-0.773926	0.339355	-0.362793	0.186963	-0.210709	0.333396	0.144150	-0.373293	0.121458	-0.908362	-25.385393	-40.027372	-152.585945
01018		-14.511173	1.820013	11.186019	18.162882	2.218320	-11.860704	0.324944	1.341964	1.113969	-0.775879	0.352051	-0.375488	-0.144454	0.017211	0.112859	0.148991	-0.366284	0.123019	-0.910222	-25.402953	-39.060629	-152.265942
01019		-4.884974	-3.198035	19.981087	16.716329	2.345583	2.368324	-0.187155	2.215697	0.974547	-0.757813	0.358154	-0.386963	-0.046476	-0.032023	0.200364	0.151651	-0.356022	0.127240	-0.913269	-25.485265	-37.712270	-152.311167
01020		5.344497	-7.258519	8.240760	0.475689	3.649466	1.832499	-0.183924	2.135342	0.454071	-0.753174	0.364258	-0.403564	0.054486	-0.072387	0.081896	0.152025	-0.346113	0.130495	-0.916551	-25.370942	-36.497221	-152.675346
01021		5.626423	-5.256767	5.858136	-1.145133	1.938854	-0.403413	-0.072076	2.092723	0.534093	-0.733154	0.367676	-0.415771	0.057013	-0.052395	0.058006	0.152940	-0.336385	0.133302	-0.919611	-25.245576	-35.303846	-152.962815
01022		4.198541	-3.280266	8.448609	1.806721	0.210240	0.008485	-0.154501	1.883069	0.404286	-0.732422	0.373779	-0.433594	0.042845	-0.032652	0.084111	0.153273	-0.327572	0.136122	-0.922320	-25.160607	-34.230615	-153.267061
01023		4.512924	-4.180338	7.666860	0.741146	0.965081	-0.058732	-0.120164	1.684990	0.287332	-0.731934	0.378662	-0.451416	0.045833	-0.041692	0.076310	0.153222	-0.319850	0.138416	-0.924694	-25.060443	-33.305977	-153.576387
01024		3.430466	-5.827172	7.193674	0.795376	2.896332	-0.407895	0.046669	1.469297	0.295693	-0.720459	0.377197	-0.466309	0.034918	-0.058237	0.071668	0.153638	-0.312820	0.139791	-0.926821	-24.903047	-32.472977	-153.817012
01025		2.970857	-2.506213	9.397002	3.063567	-0.354831	-0.122561	0.220940	0.962957	0.137441	-0.715332	0.374512	-0.467773	0.030178	-0.025145	0.093798	0.153837	-0.308221	0.139743	-0.928335	-24.681259	-31.956077	-154.012724
01026		4.190310	-3.405107	8.648273	1.414455	0.123984	0.283335	0.107211	0.624262	0.081386	-0.709229	0.383789	-0.461182	0.042187	-0.034080	0.086333	0.153939	-0.305195	0.139847	-0.929302	-24.553727	-31.613137	-154.138252
01027		3.887819	-3.416444	8.491347	1.498499	0.266351	0.014501	0.118261	0.403003	0.049035	-0.711670	0.391602	-0.474121	0.039058	-0.034205	0.084815	0.153980	-0.303298	0.139695	-0.929938	-24.446544	-31.404511	-154.226210
01028		4.410877	-2.945558	8.164094	0.957425	-0.306004	-0.128980	0.084867	0.294112	0.052096	-0.711182	0.388916	-0.479980	0.044236	-0.029479	0.081563	0.154141	-0.301842	0.139602	-0.930400	-24.372033	-31.240387	-154.276041
01029		4.476909	-2.699316	8.209793	0.958889	-0.568234	-0.143804	0.027107	0.243765	0.094628	-0.703857	0.382080	-0.477783	0.044882	-0.026983	0.082040	0.154417	-0.300709	0.139810	-0.930689	-24.354895	-31.101429	-154.285887
01030		4.615622	-2.434301	8.042760	0.783815	-0.845494	-0.294993	-0.043019	0.211031	0.142646	-0.708740	0.392578	-0.479980	0.046258	-0.024293	0.080384	0.154864	-0.299673	0.140384	-0.930863	-24.394265	-30.959236	-154.257372
01031		4.839838	-2.912489	7.752288	0.322828	-0.461593	-0.237341	-0.109454	0.184626	0.173524	-0.707275	0.389893	-0.477539	0.048495	-0.029040	0.077494	0.155327	-0.298850	0.141291	-0.930913	-24.486070	-30.831472	-154.206048
01032		4.692054	-3.661167	7.640510	0.203854	0.273056	-0.133807	-0.131730	0.147058	0.178743	-0.706787	0.394531	-0.485840	0.047009	-0.036519	0.076395	0.155854	-0.298155	0.142281	-0.930897	-24.596140	-30.713969	-154.138474
01033		4.718963	-4.008619	7.473144	0.001963	0.586764	-0.125522	-0.121688	0.139061	0.157131	-0.714111	0.393311	-0.482910	0.047273	-0.040004	0.074723	0.156254	-0.297559	0.143184	-0.930882	-24.695393	-30.613106	-154.085478
01034		4.479087	-4.269934	7.601422	0.199763	0.873092	-0.051850	-0.097036	0.147420	0.135124	-0.710205	0.391113	-0.478760	0.044876	-0.042632	0.076002	0.156628	-0.296865	0.143948	-0.930923	-24.771607	-30.505685	-154.044975
01035		4.720348	-4.361831	7.591359	-0.022268	0.851997	0.097387	-0.061680	0.132249	0.106159	-0.705322	0.401611	-0.488525	0.047277	-0.043570	0.075896	0.156853	-0.296280	0.144504	-0.930985	-24.821826	-30.419850	-154.025161
01036		4.764493	-4.376507	7.461614	-0.146308	0.860938	0.024348	-0.033124	0.089102	0.057337	-0.710449	0.406250	-0.482910	0.047691	-0.043739	0.074602	0.157002	-0.295863	0.144809	-0.931046	-24.845681	-30.361418	-154.015570
01037		5.121143	-4.183212	7.411709	-0.419607	0.553322	0.095721	-0.013003	0.099635	0.025044	-0.702148	0.408203	-0.490967	0.051254	-0.041821	0.074094	0.157002	-0.295454	0.144996	-0.931146	-24.850155	-30.310991	-154.028230
01038		5.640943	-3.638575	7.256678	-0.811885	-0.114702	0.038532	-0.009764	0.109783	0.021943	-0.703613	0.405762	-0.484619	0.056453	-0.036376	0.072538	0.157005	-0.294948	0.145156	-0.931281	-24.846947	-30.250332	-154.045741
01039		5.515578	-3.608859	7.346468	-0.663982	-0.114737	0.034241	-0.005803	0.119977	0.035449	-0.707275	0.408447	-0.489746	0.055206	-0.036077	0.073433	0.157071	-0.294439	0.145340	-0.931402	-24.848677	-30.187137	-154.054767
01040		5.095863	-3.678576	7.437858	-0.308935	0.086404	-0.080342	0.002857	0.120079	0.043346	-0.712891	0.409912	-0.492432	0.051011	-0.036776	0.074347	0.157185	-0.293860	0.145481	-0.931544	-24.843314	-30.115978	-154.062246
01041		4.652461	-3.740726	7.778155	0.215724	0.245265	-0.013125	0.000870	0.105426	0.040994	-0.700684	0.411133	-0.488037	0.046573	-0.037398	0.077757	0.157283	-0.293411	0.145633	-0.931645	-24.844873	-30.059542	-154.065435
01042		4.467333	-3.815549	7.836862	0.370108	0.368781	-0.032150	0.002342	0.085184	0.038461	-0.714111	0.412842	-0.496582	0.044714	-0.038148	0.078349	0.157398	-0.292998	0.145741	-0.931739	-24.843218	-30.007709	-154.066132
01043		4.457940	-3.738184	7.906642	0.429212	0.285628	-0.009809	-0.010563	0.062549	0.032240	-0.708984	0.410400	-0.487305	0.044610	-0.037370	0.079054	0.157486	-0.292761	0.145900	-0.931774	-24.855030	-29.974780	-154.060799
01044		4.366751	-3.691368	7.927370	0.517633	0.269997	-0.055789	-0.016406	0.045067	0.035885	-0.704102	0.409424	-0.488525	0.043692	-0.036899	0.079267	0.157592	-0.292551	0.146061	-0.931797	-24.868911	-29.944429	-154.051902
01045		4.776013	-3.710465	7.666504	0.038740	0.175002	-0.049440	-0.023472	0.029369	0.024082	-0.703613	0.424072	-0.496338	0.047776	-0.037090	0.076662	0.157639	-0.292475	0.146245	-0.931784	-24.890006	-29.929829	-154.043562
01046		5.212400	-3.553694	7.474663	-0.384083	-0.101648	-0.039736	-0.023534	0.033710	0.016163	-0.708008	0.422119	-0.500000	0.052139	-0.035524	0.074742	0.157650	-0.292338	0.146401	-0.931800	-24.903637	-29.910138	-154.043352
01047		4.905890	-3.662881	7.422860	-0.200273	0.119680	-0.193495	-0.022718	0.050141	0.003038	-0.702881	0.419922	-0.492188	0.049078	-0.036620	0.074220	0.157640	-0.292188	0.146559	-0.931824	-24.916167	-29.889431	-154.046455
01048		4.446192	-3.794579	7.626436	0.247130	0.374506	-0.214320	-0.008090	0.056314	0.002309	-0.706787	0.422363	-0.500977	0.044484	-0.037942	0.076253	0.157593	-0.291943	0.146641	-0.931896	-24.913683	-29.861342	-154.060842
01049		4.404865	-3.833391	7.618068	0.264205	0.424864	-0.227158	-0.005453	0.023738	0.013310	-0.713379	0.418945	-0.501465	0.044060	-0.038329	0.076176	0.157667	-0.291891	0.146716	-0.931888	-24.923046	-29.851624	-154.051519
01050		4.233445	-3.886708	7.746312	0.460949	0.513541	-0.191996	-0.004237	0.015320	0.017365	-0.713623	0.425781	-0.499268	0.042344	-0.038862	0.077461	0.157726	-0.291824	0.146769	-0.931891	-24.928536	-29.841206	-154.045470
01051		4.410035	-3.751227	7.627181	0.281238	0.344034	-0.247305	0.005039	0.001045	0.009479	-0.720947	0.432617	-0.504883	0.044103	-0.037512	0.076271	0.157796	-0.291864	0.146778	-0.931865	-24.933770	-29.843504	-154.034522
01052		4.630076	-3.873846	7.495619	0.006246	0.396236	-0.196474	0.020593	-0.006136	0.007603	-0.719971	0.420410	-0.501465	0.046300	-0.038744	0.074954	0.157862	-0.291884	0.146685	-0.931862	-24.925102	-29.846595	-154.028344
01053		4.790406	-3.775784	7.654856	-0.003664	0.218435	-0.027309	0.022578	-0.007103	0.007802	-0.708252	0.422119	-0.497559	0.047903	-0.037765	0.076546	0.157958	-0.291945	0.146606	-0.931839	-24.921183	-29.853028	-154.015911
01054		5.016023	-3.735446	7.598366	-0.205254	0.106932	0.025790	0.010705	0.010392	0.018186	-0.716309	0.434814	-0.506348	0.050168	-0.037354	0.075979	0.158046	-0.291889	0.146588	-0.931845	-24.919055	-29.844980	-154.007989
01055		4.831331	-3.632628	7.604415	-0.037107	0.081319	-0.098940	0.004966	0.018651	0.024342	-0.721191	0.438965	-0.496582	0.048325	-0.036322	0.076039	0.158204	-0.291835	0.146632	-0.931828	-24.927231	-29.833747	-153.989156
01056		4.699991	-3.802821	7.721678	0.096167	0.262463	-0.009752	-0.001810	0.035625	0.033000	-0.718506	0.437500	-0.508301	0.047020	-0.038020	0.077209	0.158324	-0.291660	0.146713	-0.931849	-24.933195	-29.809011	-153.979384
01057		4.258372	-3.913218	7.828020	0.476712	0.507353	-0.104947	-0.012475	0.054110	0.039708	-0.721436	0.441650	-0.500977	0.042613	-0.039119	0.078271	0.158531	-0.291446	0.146886	-0.931854	-24.951544	-29.775205	-153.957649
01058		4.725989	-3.751855	7.554045	-0.020865	0.228915	-0.147174	-0.004273	0.063431	0.028345	-0.723145	0.437988	-0.507568	0.047289	-0.037510	0.075526	0.158606	-0.291147	0.146994	-0.931918	-24.953686	-29.737148	-153.958415
01059		4.832768	-3.497132	7.587996	-0.036460	-0.052490	-0.160788	0.007816	0.077869	0.030316	-0.721924	0.438721	-0.500732	0.048363	-0.034967	0.075860	0.158777	-0.290808	0.147080	-0.931981	-24.954390	-29.692764	-153.949516
01060		4.494393	-3.775963	7.580556	0.156697	0.328269	-0.231979	0.014531	0.087898	0.028788	-0.714355	0.442139	-0.506592	0.044983	-0.037759	0.075783	0.158863	-0.290379	0.147121	-0.932093	-24.942534	-29.641891	-153.956810
01061		4.306617	-3.702152	7.750827	0.410452	0.299322	-0.217369	0.023284	0.102018	0.027651	-0.725586	0.446777	-0.513916	0.043111	-0.037025	0.077482	0.159035	-0.289917	0.147149	-0.932203	-24.930387	-29.585332	-153.955190
01062		4.380562	-3.596543	7.759107	0.370272	0.172074	-0.212610	0.020679	0.094687	0.028204	-0.722900	0.451660	-0.507324	0.043847	-0.035967	0.077567	0.159122	-0.289452	0.147166	-0.932330	-24.913947	-29.531069	-153.964675
01063		4.320450	-3.550804	7.787976	0.435479	0.145386	-0.235826	0.013952	0.090145	0.031433	-0.720459	0.447021	-0.509521	0.043245	-0.035507	0.077858	0.159328	-0.289047	0.147231	-0.932411	-24.910141	-29.478991	-153.955065
01064		4.681720	-3.708070	7.697811	0.058295	0.163814	-0.071315	0.011623	0.086604	0.027548	-0.729492	0.449463	-0.510498	0.046856	-0.037079	0.076956	0.159405	-0.288627	0.147283	-0.932519	-24.899838	-29.429085	-153.962664
01065		4.512104	-3.743452	7.790898	0.230021	0.239974	-0.067940	0.003400	0.092181	0.032871	-0.724121	0.448486	-0.511230	0.045163	-0.037428	0.077888	0.159591	-0.288215	0.147403	-0.932596	-24.901914	-29.375300	-153.954127
01066		4.679671	-3.851320	7.535999	-0.081756	0.317354	-0.147499	0.013302	0.091667	0.025984	-0.727783	0.446045	-0.507568	0.046836	-0.038512	0.075336	0.159659	-0.287772	0.147448	-0.932714	-24.889536	-29.323137	-153.964034
01067		4.619226	-3.747402	7.701690	0.075805	0.213076	-0.084114	0.017548	0.098997	0.023672	-0.728027	0.447510	-0.508545	0.046235	-0.037475	0.076991	0.159807	-0.287320	0.147498	-0.932820	-24.879851	-29.267865	-153.964186
01068		4.478447	-3.818441	7.706526	0.164229	0.328852	-0.122878	0.026161	0.097922	0.021993	-0.734863	0.458496	-0.507813	0.044826	-0.038190	0.077038	0.159870	-0.286840	0.147483	-0.932959	-24.858146	-29.213408	-153.978152
01069		4.413861	-3.604258	7.777349	0.293703	0.144879	-0.176674	0.027701	0.072494	0.024370	-0.730225	0.456299	-0.504639	0.044171	-0.036048	0.077752	0.160071	-0.286503	0.147464	-0.933032	-24.846765	-29.171356	-153.968699
01070		4.361455	-3.649549	7.717353	0.283900	0.216262	-0.232934	0.018431	0.049239	0.023183	-0.732910	0.459961	-0.514160	0.043638	-0.036498	0.077159	0.160164	-0.286255	0.147447	-0.933094	-24.836421	-29.141917	-153.968487
01071		4.358124	-3.478718	8.017509	0.494027	0.005893	-0.059171	0.007012	0.027807	0.024871	-0.732422	0.465820	-0.510010	0.043597	-0.034785	0.080168	0.160392	-0.286142	0.147487	-0.933084	-24.843266	-29.122411	-153.943858
01072		4.573566	-3.553832	7.658007	0.098450	0.055408	-0.211670	-0.013291	0.002519	0.023016	-0.734619	0.455078	-0.513916	0.045741	-0.035528	0.076582	0.160474	-0.286138	0.147581	-0.933056	-24.857325	-29.117300	-153.930864
01073		4.481365	-3.601960	7.645968	0.154622	0.133823	-0.248392	-0.008518	-0.017837	0.022154	-0.738770	0.453857	-0.513184	0.044811	-0.036011	0.076465	0.160701	-0.286249	0.147651	-0.932972	-24.878110	-29.121843	-153.895360
01074		4.340344	-3.624747	7.727498	0.309609	0.192769	-0.244062	-0.004535	-0.020933	0.012940	-0.740234	0.458740	-0.506348	0.043398	-0.036243	0.077280	0.160766	-0.286354	0.147670	-0.932925	-24.887397	-29.131340	-153.881881
01075		4.357494	-3.655209	7.716912	0.285956	0.214094	-0.232947	-0.013494	-0.024364	0.010936	-0.743164	0.460938	-0.504639	0.043568	-0.036544	0.077177	0.160903	-0.286501	0.147748	-0.932844	-24.907970	-29.141941	-153.855780
01076		4.329846	-3.610607	7.713036	0.317792	0.184292	-0.265959	-0.012794	-0.027043	0.006705	-0.745117	0.465576	-0.511963	0.043289	-0.036100	0.077139	0.160932	-0.286646	0.147793	-0.932787	-24.921022	-29.156108	-153.844306
01077		4.348023	-3.707795	7.656379	0.252804	0.274280	-0.266272	-0.012393	-0.029170	-0.001003	-0.746094	0.465332	-0.514893	0.043469	-0.037073	0.076572	0.161042	-0.286823	0.147841	-0.932706	-24.938441	-29.171526	-153.821148
01078		4.404639	-3.766585	7.610051	0.171954	0.314493	-0.253796	-0.001735	-0.031648	-0.003989	-0.742920	0.463379	-0.507813	0.044034	-0.037666	0.076108	0.161040	-0.286989	0.147815	-0.932660	-24.942698	-29.190662	-153.814743
01079		4.449414	-3.619501	7.668822	0.205743	0.153930	-0.239659	0.007924	-0.026559	-0.014141	-0.745605	0.460449	-0.505127	0.044481	-0.036201	0.076693	0.161116	-0.287144	0.147753	-0.932609	-24.944396	-29.207561	-153.800207
01080		4.445890	-3.705295	7.548308	0.122163	0.257565	-0.305278	0.020561	-0.030009	-0.016918	-0.758301	0.465576	-0.509277	0.044444	-0.037064	0.075486	0.161085	-0.287293	0.147605	-0.932591	-24.931916	-29.228964	-153.801940
01081		4.329394	-3.589967	7.695974	0.326841	0.174225	-0.287859	0.030395	-0.031259	-0.031881	-0.755371	0.469238	-0.512451	0.043276	-0.035918	0.076961	0.161095	-0.287461	0.147413	-0.932568	-24.915887	-29.252515	-153.799031
01082		4.129420	-3.758528	7.632975	0.413149	0.419944	-0.373731	0.024879	-0.040295	-0.034031	-0.758057	0.461670	-0.508301	0.041272	-0.037602	0.076333	0.160998	-0.287668	0.147213	-0.932553	-24.897342	-29.283388	-153.808120
01083		3.880700	-3.959724	7.528012	0.505828	0.721836	-0.504986	0.048147	-0.032061	-0.053936	-0.757080	0.466309	-0.520264	0.038784	-0.039626	0.075277	0.160934	-0.287838	0.146906	-0.932560	-24.864820	-29.312187	-153.818027
01084		3.720367	-4.103772	7.659055	0.679052	0.899421	-0.427959	0.078636	-0.037891	-0.089971	-0.766846	0.455811	-0.509277	0.037171	-0.041085	0.076581	0.160652	-0.288031	0.146377	-0.932632	-24.798780	-29.355254	-153.861189
01085		4.515210	-3.984703	7.769907	0.149119	0.478215	0.004924	0.095975	-0.026747	-0.110553	-0.761963	0.469238	-0.511475	0.045120	-0.039909	0.077686	0.160359	-0.288169	0.145780	-0.932734	-24.721447	-29.394147	-153.910266
01086		4.938516	-3.506939	8.109494	0.120667	-0.165511	0.307070	0.056649	-0.025960	-0.087707	-0.768066	0.460449	-0.502686	0.049359	-0.035114	0.081091	0.160047	-0.288322	0.145366	-0.932804	-24.666944	-29.430366	-153.955498
01087		5.267076	-3.356779	7.885477	-0.230839	-0.381097	0.236804	-0.005506	-0.057098	-0.057927	-0.772949	0.466064	-0.500732	0.052639	-0.033581	0.078871	0.159908	-0.288647	0.145289	-0.932740	-24.667665	-29.472050	-153.960822
01088		4.957540	-3.304424	7.813564	-0.010349	-0.295035	0.008771	-0.054947	-0.098338	-0.042296	-0.771240	0.458496	-0.500977	0.049530	-0.033033	0.078169	0.159699	-0.289194	0.145403	-0.932588	-24.700203	-29.535069	-153.959031
01089		5.023319	-3.508964	7.760307	-0.122585	-0.127287	0.073549	-0.095925	-0.135477	-0.033204	-0.775146	0.457031	-0.501221	0.050175	-0.035061	0.077654	0.159583	-0.289938	0.145719	-0.932328	-24.769934	-29.612122	-153.930269
01090		4.645299	-3.502422	7.869827	0.256595	-0.011711	-0.029338	-0.116423	-0.168510	-0.021133	-0.780518	0.463379	-0.503906	0.046383	-0.034983	0.078758	0.159435	-0.290845	0.146094	-0.932012	-24.853666	-29.706538	-153.896225
01091		4.577973	-3.541504	7.808122	0.286848	0.055016	-0.097673	-0.144781	-0.214886	-0.023221	-0.781006	0.456055	-0.494629	0.045692	-0.035364	0.078156	0.159325	-0.291987	0.146591	-0.931596	-24.964867	-29.822616	-153.842612
01092		4.505327	-3.671125	7.938283	0.420689	0.171524	0.015079	-0.163154	-0.266104	-0.024368	-0.783936	0.455078	-0.481934	0.044943	-0.036652	0.079473	0.159164	-0.293388	0.147101	-0.931102	-25.088383	-29.968365	-153.782724
01093		4.555514	-4.433890	7.569224	0.035906	0.904861	0.030334	-0.167462	-0.327225	-0.046623	-0.797363	0.458740	-0.488770	0.045421	-0.044286	0.075804	0.158968	-0.295080	0.147583	-0.930525	-25.221358	-30.148089	-153.714225
01094		4.502731	-4.408087	7.433026	0.039539	0.926734	-0.112421	-0.134021	-0.376497	-0.110630	-0.783936	0.457031	-0.480469	0.044863	-0.044056	0.074444	0.158529	-0.297033	0.147742	-0.929953	-25.318669	-30.371908	-153.673881
01095		4.677010	-4.239650	7.548081	0.052430	0.692267	0.002627	-0.120263	-0.449399	-0.153883	-0.808594	0.463623	-0.489990	0.046568	-0.042387	0.075611	0.157988	-0.299330	0.147755	-0.929306	-25.411313	-30.640648	-153.634350
01096		3.910865	-4.478864	7.698775	0.736776	1.185714	-0.185788	-0.126530	-0.547264	-0.197693	-0.803955	0.457764	-0.471191	0.038853	-0.044778	0.077123	0.157280	-0.302132	0.147612	-0.928542	-25.503446	-30.974131	-153.596394
01097		4.331027	-4.464045	7.607018	0.424210	1.044794	-0.051528	-0.102613	-0.689238	-0.267436	-0.810059	0.454102	-0.466553	0.042988	-0.044659	0.076242	0.156406	-0.305602	0.147189	-0.927621	-25.587915	-31.394142	-153.555680
01098		3.146374	-3.324447	8.759828	2.343539	0.281205	-0.215073	-0.127180	-0.887155	-0.354685	-0.817627	0.455566	-0.453613	0.031016	-0.033244	0.087758	0.155214	-0.310087	0.146540	-0.926434	-25.683691	-31.942005	-153.512439
01099		1.740126	-2.920604	9.501733	4.057332	0.340405	-0.578973	-0.366988	-1.213753	-0.583961	-0.827637	0.451172	-0.443359	0.016739	-0.029081	0.095174	0.152839	-0.316396	0.146440	-0.924710	-25.900945	-32.709927	-153.508256
01100		0.448679	-6.340441	8.586851	3.963176	4.135368	-0.794698	-0.371515	-1.878433	-0.992009	-0.847656	0.441895	-0.428223	0.003365	-0.063263	0.086021	0.149028	-0.326086	0.145143	-0.922167	-26.088356	-33.928086	-153.554988
01101		1.830132	-4.186987	9.189802	3.941505	1.622512	-0.476897	-0.427173	-2.597333	-1.396879	-0.864502	0.433594	-0.395752	0.016813	-0.041794	0.092212	0.143758	-0.339302	0.142954	-0.918571	-26.296709	-35.608553	-153.630063
01102		1.592318	-4.816569	9.449756	4.488496	2.352514	-0.360864	-0.341946	-3.475365	-1.805233	-0.882813	0.415039	-0.366699	0.013843	-0.048135	0.094832	0.137339	-0.356747	0.138934	-0.913546	-26.461703	-37.853655	-153.682171
01103		1.222449	-5.829463	9.604561	5.085340	3.550642	-0.366406	-0.179072	-4.268121	-2.234810	-0.907227	0.394531	-0.321777	0.009519	-0.058325	0.096320	0.129733	-0.377722	0.132883	-0.907104	-26.525490	-40.601022	-153.755448
01104		2.662611	-5.853006	9.306594	4.343665	3.351311	0.078104	0.036907	-4.926930	-2.679628	-0.937744	0.370117	-0.278564	0.023536	-0.058876	0.093660	0.120869	-0.401686	0.124405	-0.899201	-26.398958	-43.813957	-153.912580
01105		3.977698	-6.109727	9.737216	4.323801	3.416020	1.029435	0.338043	-5.455533	-3.056171	-0.961426	0.336182	-0.232178	0.036163	-0.061834	0.098287	0.111128	-0.427582	0.113513	-0.889909	-26.018434	-47.374055	-154.189042
01106		7.235978	-6.094373	11.405292	4.337093	2.689181	4.096166	0.666988	-5.825382	-3.331288	-0.994873	0.300537	-0.175049	0.067970	-0.062485	0.115869	0.100972	-0.454787	0.100122	-0.879175	-25.317207	-51.210752	-154.609833
01107		11.270166	-3.940594	12.043463	3.653861	0.032127	6.743891	0.454107	-6.160573	-3.393152	-1.009033	0.269775	-0.114502	0.108231	-0.041546	0.123722	0.090064	-0.482893	0.087407	-0.866639	-24.706283	-55.209491	-155.068124
01108		13.433263	-7.792013	12.484623	3.752316	3.812036	9.377307	-0.178807	-6.256072	-3.345792	-1.024170	0.233887	-0.046143	0.129013	-0.079994	0.129009	0.077810	-0.511246	0.077231	-0.852413	-24.414802	-59.268038	-155.536612
01109		12.905060	-7.912145	9.403701	2.395036	4.791014	7.180134	0.133695	-6.002208	-3.530154	-1.034424	0.200439	0.008789	0.124730	-0.081413	0.097770	0.065346	-0.537654	0.065443	-0.838078	-23.529802	-63.206888	-156.478268
01110		13.561719	-5.012151	10.585580	4.347463	2.350051	7.407894	-0.201308	-5.850064	-3.572245	-1.028809	0.152344	0.080566	0.131521	-0.052386	0.109795	0.051710	-0.563093	0.054734	-0.822956	-22.399634	-67.093419	-157.850386
01111		17.066337	-9.010917	11.004031	4.451433	6.388357	10.990155	-0.181407	-5.090950	-3.621757	-1.023682	0.120605	0.127930	0.166121	-0.093043	0.114391	0.037716	-0.584625	0.044124	-0.809224	-20.284244	-70.537112	-160.242553
01112		13.995065	-6.518685	7.577408	3.104136	4.956459	6.358166	0.151389	-4.252391	-3.433575	-1.016846	0.073242	0.163330	0.137151	-0.067616	0.078660	0.025187	-0.602349	0.032656	-0.797167	-16.842449	-73.475889	-163.769123
01113		14.688126	-8.095115	9.806177	5.700530	6.939801	7.412644	0.392925	-3.244743	-3.115269	-1.004883	0.050049	0.191406	0.143980	-0.083405	0.100251	0.014406	-0.615396	0.021603	-0.787791	-12.091928	-75.692467	-168.495836
01114		18.985449	-8.037943	21.775061	16.753528	6.967953	14.060565	0.131187	-1.490550	-2.203769	-0.995117	0.015137	0.210938	0.187323	-0.082596	0.219099	0.006284	-0.621450	0.014196	-0.783300	-7.534283	-76.751413	-173.111061
01115		13.206437	-11.593512	18.703374	15.256622	10.953720	7.676920	-0.453885	0.897670	-0.941066	-0.982666	0.005615	0.201172	0.132357	-0.116133	0.186704	0.000952	-0.617743	0.013516	-0.786263	-5.419898	-76.261904	-175.605531
01116		1.567497	-8.679348	6.771859	6.319711	8.512436	-6.459277	-0.080818	1.785433	-0.500670	-0.975098	0.002197	0.184326	0.016062	-0.086806	0.067611	-0.001391	-0.610740	0.012295	-0.791735	-4.006737	-75.267143	-177.111473
01117		-1.874876	-4.204891	3.640554	4.075680	4.150041	-10.597342	0.237630	1.664231	-0.392995	-0.973145	-0.007813	0.162109	-0.018528	-0.042056	0.036510	-0.002235	-0.603835	0.010514	-0.797037	-2.975286	-74.281485	-178.067558
01118		0.733506	-3.060606	5.730637	5.350653	2.938693	-7.471862	-0.100892	1.573877	-0.056644	-0.965820	-0.006592	0.144043	0.007777	-0.030579	0.057262	-0.002852	-0.597554	0.010727	-0.801752	-2.764626	-73.383637	-178.347399
01119		1.332248	-4.995695	6.311887	5.731794	4.829890	-6.589529	-0.496699	1.853571	0.438160	-0.960693	-0.012695	0.117920	0.014017	-0.049770	0.063115	-0.002589	-0.589714	0.014397	-0.807480	-3.800261	-72.258021	-177.592811
01120		0.232093	-5.524810	5.533856	5.300007	5.357682	-7.714203	-0.493976	2.220222	0.828679	-0.950928	-0.004150	0.101318	0.003165	-0.055099	0.055443	-0.000864	-0.580648	0.018806	-0.813937	-5.205922	-70.953581	-176.410184
01121		-0.419783	-4.055274	5.023848	4.972265	3.877724	-8.364310	-0.473083	2.479890	1.159673	-0.949219	-0.004639	0.069336	-0.003339	-0.040455	0.050379	0.001455	-0.569971	0.024980	-0.821283	-6.973534	-69.413657	-174.963897
01122		-0.428418	-2.869677	4.888685	4.784914	2.670692	-8.300318	-0.639731	2.648745	1.463628	-0.935303	0.013184	0.049316	-0.003426	-0.028567	0.049028	0.005307	-0.558855	0.031795	-0.828638	-8.924217	-67.795457	-173.263102
01123		0.296203	-2.601179	4.914884	4.487037	2.309788	-7.459325	-0.831247	2.838868	1.721241	-0.928467	0.019775	0.021484	0.003883	-0.025777	0.049206	0.008505	-0.546273	0.041177	-0.836551	-11.065806	-65.961266	-171.641200
01124		0.650882	-2.131511	4.409324	3.799336	1.790036	-7.211316	-0.942221	3.059192	1.911576	-0.921875	0.036377	-0.005859	0.007385	-0.021040	0.044084	0.013291	-0.533036	0.050463	-0.844482	-13.114607	-64.018639	-169.976859
01125		0.753429	-1.307341	3.648856	2.966189	0.949136	-7.385784	-0.991830	3.210901	2.020258	-0.926025	0.065430	-0.033936	0.008250	-0.012812	0.036424	0.018433	-0.518471	0.060704	-0.852739	-15.085134	-61.884811	-168.446306
01126		1.147348	-0.739833	3.241904	2.324873	0.318972	-7.192505	-1.028517	3.265109	2.055872	-0.908203	0.069092	-0.067871	0.012075	-0.007110	0.032262	0.023534	-0.503923	0.070709	-0.860528	-16.783701	-59.763176	-167.176622
01127		2.238819	-0.438349	3.705997	2.072296	-0.231234	-5.993196	-1.093094	3.303011	2.090455	-0.898438	0.093750	-0.100098	0.023039	-0.003944	0.036705	0.028665	-0.488509	0.081509	-0.868270	-18.408642	-57.526882	-166.052173
01128		3.711416	-0.709107	3.962889	1.376078	-0.297415	-4.521609	-1.178327	3.394811	2.168666	-0.870850	0.111084	-0.127930	0.037852	-0.006452	0.039030	0.033809	-0.472955	0.092391	-0.875577	-19.890874	-55.282381	-165.084043
01129		4.740724	-0.876472	3.175977	-0.043104	-0.322173	-4.049120	-1.127354	3.480915	2.271260	-0.871094	0.119385	-0.156982	0.048045	-0.008045	0.030974	0.039530	-0.456240	0.103703	-0.882909	-21.300450	-52.886183	-164.186641
01130		5.482457	0.104987	2.147973	-1.536974	-1.385122	-4.299436	-1.019033	3.447394	2.364793	-0.843506	0.155762	-0.184570	0.055165	0.001807	0.020523	0.045845	-0.439896	0.114255	-0.889570	-22.543243	-50.548373	-163.348070
01131		6.604950	1.079304	1.478398	-2.972757	-2.561483	-4.193917	-1.010259	3.254647	2.433350	-0.836426	0.171143	-0.215088	0.066139	0.011668	0.013651	0.052632	-0.423657	0.125236	-0.895578	-23.801522	-48.215284	-162.498646
01132		8.438369	0.940881	1.185580	-4.562877	-2.893953	-3.157438	-1.006821	2.974674	2.489944	-0.812988	0.192627	-0.234863	0.084421	0.010515	0.010549	0.059773	-0.408962	0.135779	-0.900412	-25.020101	-46.073984	-161.624187
01133		10.350967	0.733182	1.129631	-6.085859	-3.293626	-1.998768	-0.960299	2.686004	2.565447	-0.793213	0.208008	-0.257324	0.103543	0.008710	0.009866	0.067575	-0.394855	0.146500	-0.904467	-26.262122	-43.984797	-160.690048
01134		11.298127	0.317049	0.395803	-7.475959	-3.185668	-1.948029	-0.835003	2.354134	2.631932	-0.769531	0.230713	-0.273926	0.112962	0.004670	0.002611	0.076091	-0.382501	0.156247	-0.907463	-27.428946	-42.100510	-159.682426
01135		11.826392	0.257536	-0.238263	-8.476336	-3.354470	-2.271227	-0.559989	1.914682	2.621586	-0.749023	0.250732	-0.280273	0.118187	0.004116	-0.003524	0.085454	-0.371491	0.164843	-0.909681	-28.487631	-40.368640	-158.604084
01136		13.224845	0.335260	0.738642	-8.911965	-4.299065	-1.001526	-0.266844	1.448667	2.577779	-0.730957	0.270264	-0.287354	0.132239	0.005066	0.006423	0.095478	-0.362852	0.171449	-0.910949	-29.379600	-38.927704	-157.446742
01137		15.481500	0.816084	3.123828	-8.978601	-6.302772	1.577870	-0.106993	1.121792	2.587710	-0.716797	0.291504	-0.290283	0.154864	0.010181	0.030365	0.106137	-0.355168	0.177442	-0.911650	-30.224617	-37.583095	-156.218567
01138		16.611142	1.481026	4.150024	-9.143682	-7.871745	2.424821	-0.117907	0.986507	2.606373	-0.704590	0.302490	-0.299316	0.166101	0.016999	0.040671	0.116921	-0.348388	0.183118	-0.911824	-31.042991	-36.335754	-154.970834
01139		16.687681	1.695028	3.620265	-9.616759	-8.301445	1.721901	-0.020457	0.885660	2.410222	-0.675781	0.318115	-0.309570	0.166814	0.018965	0.035462	0.127083	-0.341830	0.188141	-0.911924	-31.727840	-35.143516	-153.848385
01140		17.769726	2.411895	4.180302	-10.009953	-9.777153	2.156074	0.131553	0.804042	2.033102	-0.661865	0.331543	-0.312256	0.177606	0.025898	0.041106	0.135813	-0.336148	0.191521	-0.912074	-32.167607	-34.136111	-152.943156
01141		18.164148	2.717269	3.997203	-10.441476	-10.392328	1.860544	0.213175	0.844418	1.569111	-0.656250	0.340332	-0.328125	0.181588	0.028555	0.039235	0.142534	-0.330425	0.193909	-0.912635	-32.389070	-33.218782	-152.344236
01142		17.513479	2.979093	3.041859	-10.613614	-10.280176	0.507927	0.325067	0.841076	1.016454	-0.652100	0.335693	-0.325195	0.175107	0.030632	0.029731	0.146890	-0.325362	0.194705	-0.913593	-32.354529	-32.499815	-152.065707
01143		17.433899	2.669693	2.233102	-11.195151	-9.841980	-0.124702	0.312186	0.753720	0.501339	-0.639893	0.339355	-0.338135	0.174354	0.027100	0.021716	0.148963	-0.321082	0.194728	-0.914766	-32.187878	-31.965933	-152.053651
01144		17.014474	1.154767	0.994301	-11.972650	-8.031205	-0.649226	0.352053	0.610377	0.066734	-0.637207	0.340088	-0.348633	0.170170	0.011588	0.009444	0.149238	-0.317961	0.193684	-0.916032	-31.891858	-31.649029	-152.233702
01145		16.354062	0.558353	0.362985	-12.025429	-7.045799	-1.231067	0.402628	0.363343	-0.256564	-0.632324	0.346191	-0.346191	0.163554	0.005367	0.003344	0.148352	-0.316226	0.191725	-0.917188	-31.518930	-31.546620	-152.509055
01146		15.884074	-0.483509	0.167542	-11.981837	-5.829267	-1.151258	0.389137	0.037010	-0.486744	-0.640625	0.348877	-0.347412	0.158829	-0.005225	0.001636	0.146698	-0.316232	0.189203	-0.917976	-31.143235	-31.673349	-152.801591
01147		16.302630	-1.613173	1.080850	-11.881995	-5.146522	0.280718	0.325841	-0.286537	-0.596080	-0.644531	0.342285	-0.344971	0.162962	-0.016635	0.011015	0.144739	-0.317949	0.186537	-0.918239	-30.829052	-31.999211	-153.044026
01148		15.568745	-2.682656	1.359745	-11.271280	-3.908422	0.633018	0.252350	-0.510096	-0.536927	-0.651611	0.343750	-0.348145	0.155579	-0.027262	0.013960	0.143149	-0.320606	0.184159	-0.918044	-30.612601	-32.407465	-153.179990
01149		13.757316	-3.034875	0.965403	-10.147471	-2.748406	-0.385065	0.335158	-0.781784	-0.503145	-0.650391	0.345459	-0.346680	0.137457	-0.030711	0.010140	0.142078	-0.324579	0.181212	-0.917401	-30.410176	-32.959526	-153.199340
01150		12.729582	-2.610186	1.727173	-8.742041	-2.873088	-0.476805	0.428620	-1.069616	-0.523417	-0.666260	0.346436	-0.348633	0.127132	-0.026473	0.017895	0.141338	-0.329649	0.177638	-0.916406	-30.198322	-33.639841	-153.138993
01151		12.049901	-2.615016	2.837071	-7.399472	-2.816126	0.056569	0.446432	-1.276210	-0.564607	-0.670410	0.350342	-0.340576	0.120240	-0.026554	0.029080	0.140592	-0.335905	0.173701	-0.915002	-30.006212	-34.462465	-153.026089
01152		11.185207	-2.887958	3.728148	-6.086421	-2.380021	0.416518	0.467961	-1.349843	-0.615613	-0.685059	0.344727	-0.336426	0.111508	-0.029311	0.037967	0.139729	-0.342277	0.169578	-0.913546	-29.794393	-35.308693	-152.928694
01153		9.861870	-2.565546	4.391814	-4.499237	-2.242420	0.079357	0.466943	-1.369145	-0.690239	-0.696777	0.348389	-0.331787	0.098226	-0.026098	0.044531	0.138503	-0.349056	0.165234	-0.911962	-29.565093	-36.219529	-152.863614
01154		8.978759	-2.439997	4.991562	-3.311172	-2.070305	-0.002738	0.341779	-1.353886	-0.739476	-0.711670	0.347168	-0.327881	0.089356	-0.024817	0.050479	0.136841	-0.355594	0.161447	-0.910364	-29.379500	-37.103329	-152.847490
01155		7.785077	-2.799780	4.874586	-2.465070	-1.202985	-0.610391	0.223868	-1.309245	-0.765532	-0.717529	0.350342	-0.316650	0.077422	-0.028350	0.049222	0.134776	-0.362308	0.158085	-0.908613	-29.245450	-38.008906	-152.856010
01156		6.650048	-2.888926	4.611876	-1.753423	-0.590794	-1.421411	0.151679	-1.269962	-0.799009	-0.740723	0.353027	-0.305420	0.066090	-0.029189	0.046517	0.132419	-0.368599	0.155094	-0.906943	-29.123660	-38.867485	-152.913105
01157		5.216083	-3.328916	4.092109	-1.080102	0.481643	-2.489098	0.091769	-1.247629	-0.802357	-0.757080	0.348877	-0.302490	0.051770	-0.033516	0.041230	0.129880	-0.375117	0.152282	-0.905112	-29.032654	-39.753769	-152.972255
01158		3.735658	-3.967861	3.726283	-0.318881	1.702722	-3.442243	0.023000	-1.279766	-0.722219	-0.769775	0.348145	-0.301270	0.036974	-0.039817	0.037496	0.127625	-0.381436	0.149993	-0.903173	-29.015093	-40.595860	-152.980006
01159		7.910408	-23.074779	5.074041	-4.282308	17.785561	7.101614	0.763494	-1.002851	-0.949707	-0.791992	0.347168	-0.290527	0.077754	-0.231312	0.050250	0.125508	-0.386484	0.144011	-0.902297	-28.410190	-41.398855	-153.234938
01160		5.091853	-10.394572	22.747567	11.794993	4.548840	12.358117	3.415486	1.002699	0.373449	-0.781494	0.352539	-0.307617	0.052251	-0.107710	0.225398	0.133049	-0.379489	0.129935	-0.906313	-26.389104	-40.790597	-153.333463
01161		-4.245328	1.455520	32.368297	26.290561	-4.152187	9.144413	1.290926	1.705338	0.832971	-0.779053	0.350830	-0.329346	-0.039745	0.012295	0.324114	0.138137	-0.370599	0.126801	-0.909668	-25.665591	-39.733119	-153.319851
01162		-8.199842	-3.580833	15.372786	15.899742	4.098726	-2.974658	-0.389697	2.770241	0.891091	-0.768066	0.359863	-0.350098	-0.079698	-0.035866	0.154912	0.139695	-0.357667	0.132129	-0.913839	-25.705749	-38.081735	-153.612434
01163		8.767857	-8.918860	6.482412	-3.285485	4.221360	3.218824	0.039877	2.424850	0.761213	-0.763672	0.361816	-0.370117	0.088794	-0.088865	0.063734	0.141621	-0.346146	0.134983	-0.917554	-25.529525	-36.654142	-153.868631
01164		4.509423	-4.052622	7.854250	1.263231	0.932626	-0.015847	0.064053	2.169802	0.737372	-0.751953	0.377441	-0.385498	0.046092	-0.040383	0.078033	0.143639	-0.335630	0.137498	-0.920768	-25.382504	-35.350370	-154.057398
01165		2.939159	-4.736729	8.591231	2.597807	1.930742	-0.096456	-0.042910	1.861154	0.445778	-0.743408	0.385742	-0.399414	0.030295	-0.047282	0.085643	0.144323	-0.326891	0.139787	-0.923457	-25.257943	-34.290579	-154.326388
01166		4.375471	-4.260385	7.811292	0.957701	1.047795	0.000317	0.008727	1.520672	0.266785	-0.729492	0.391846	-0.410400	0.044404	-0.042548	0.077775	0.144500	-0.319671	0.141281	-0.925727	-25.097804	-33.437402	-154.605974
01167		4.827881	-3.162955	8.078715	0.855174	-0.206235	0.076867	0.046322	1.222384	0.194292	-0.733398	0.389893	-0.420654	0.048802	-0.031601	0.080483	0.144598	-0.313941	0.142281	-0.927518	-24.951543	-32.767019	-154.834550
01168		4.027175	-3.670486	8.292508	1.403684	0.480354	-0.001751	0.069659	0.955284	0.171366	-0.730469	0.393799	-0.417480	0.040699	-0.036699	0.082719	0.144819	-0.309339	0.142920	-0.928930	-24.822421	-32.229568	-155.001833
01169		3.911927	-3.307673	8.482253	1.597874	0.139876	-0.034174	0.164994	0.661597	0.096472	-0.731934	0.401855	-0.426758	0.039415	-0.033128	0.084665	0.145071	-0.306175	0.142799	-0.929957	-24.667580	-31.872219	-155.121783
01170		4.535362	-3.020025	8.346315	1.028022	-0.327555	0.096232	0.119709	0.508897	0.040283	-0.729736	0.398926	-0.435791	0.045572	-0.030241	0.083329	0.145077	-0.303696	0.142677	-0.930787	-24.537687	-31.597904	-155.239620
01171		4.849251	-3.472717	7.824101	0.338766	0.065018	0.019525	0.107549	0.453082	0.041653	-0.731445	0.405029	-0.437256	0.048677	-0.034759	0.078112	0.145157	-0.301571	0.142580	-0.931480	-24.430719	-31.360512	-155.329718
01172		5.119256	-3.299971	7.637645	0.001977	-0.159553	-0.045162	0.123057	0.476359	0.068855	-0.727539	0.388916	-0.439453	0.051386	-0.033029	0.076234	0.145322	-0.299217	0.142461	-0.932231	-24.314515	-31.096039	-155.419185
01173		5.345060	-3.494789	7.301460	-0.461157	-0.005165	-0.123436	0.144939	0.539300	0.092392	-0.724609	0.408936	-0.447510	0.053663	-0.034976	0.072845	0.145613	-0.296618	0.142329	-0.933036	-24.190906	-30.801262	-155.503059
01174		5.186069	-3.946354	7.144330	-0.572823	0.489753	-0.172036	0.172352	0.609734	0.106563	-0.720215	0.408691	-0.451172	0.052099	-0.039497	0.071251	0.145930	-0.293576	0.142131	-0.933979	-24.041447	-30.457890	-155.603951
01175		5.577653	-3.735959	7.079220	-0.937942	0.164973	-0.103120	0.172771	0.589912	0.101697	-0.723633	0.401855	-0.450928	0.056004	-0.037392	0.070595	0.146320	-0.290716	0.141911	-0.934845	-23.901146	-30.133771	-155.686580
01176		4.781315	-4.155165	7.289327	-0.325340	0.792995	-0.193658	0.175949	0.553904	0.073170	-0.718506	0.406982	-0.456787	0.048030	-0.041598	0.072724	0.146523	-0.287950	0.141605	-0.935716	-23.749325	-29.826969	-155.790068
01177		4.330501	-3.929000	7.656234	0.237031	0.679685	-0.205927	0.171806	0.489436	0.041930	-0.717773	0.405518	-0.464844	0.043500	-0.039347	0.076422	0.146678	-0.285599	0.141235	-0.936468	-23.607064	-29.569309	-155.882565
01178		4.183181	-3.175548	8.073544	0.696518	-0.033008	-0.206498	0.132903	0.389615	0.021237	-0.713135	0.408203	-0.470459	0.041992	-0.031805	0.080633	0.146690	-0.283667	0.140933	-0.937098	-23.487668	-29.360273	-155.971939
01179		4.318448	-2.753564	8.260350	0.745910	-0.502138	-0.135090	0.078802	0.287260	0.025530	-0.713135	0.408447	-0.478027	0.043307	-0.027563	0.082530	0.146788	-0.282336	0.140827	-0.937501	-23.421307	-29.211587	-156.018699
01180		3.947363	-2.793713	8.425257	1.104258	-0.366554	-0.168119	0.018032	0.200072	0.037291	-0.718262	0.417236	-0.469482	0.039563	-0.027937	0.084211	0.146846	-0.281363	0.140947	-0.937766	-23.397357	-29.098386	-156.048142
01181		4.635272	-2.840053	8.149127	0.375568	-0.524413	-0.038034	-0.029756	0.118794	0.048535	-0.715332	0.417725	-0.470703	0.046408	-0.028377	0.081468	0.147038	-0.280881	0.141251	-0.937835	-23.421072	-29.032166	-156.034759
01182		4.996948	-2.893133	7.855346	-0.097750	-0.558814	-0.080045	-0.063110	0.053627	0.052721	-0.720947	0.413818	-0.465820	0.049998	-0.028893	0.078549	0.147158	-0.280644	0.141666	-0.937824	-23.466685	-28.992456	-156.016780
01183		4.857852	-3.182873	7.780446	-0.086737	-0.239441	-0.107025	-0.073397	0.028908	0.048843	-0.720459	0.419189	-0.474365	0.048598	-0.031788	0.077809	0.147361	-0.280614	0.142102	-0.937735	-23.526300	-28.973319	-155.979105
01184		4.583816	-3.474923	7.860234	0.119796	0.101993	-0.073849	-0.077738	0.021618	0.046162	-0.717529	0.423828	-0.471680	0.045855	-0.034708	0.078611	0.147452	-0.280542	0.142553	-0.937674	-23.582398	-28.951906	-155.956770
01185		4.592960	-3.472175	7.708676	0.028769	0.114786	-0.191827	-0.077425	0.010974	0.049372	-0.718018	0.425049	-0.474609	0.045942	-0.034681	0.077098	0.147676	-0.280599	0.142994	-0.937555	-23.646784	-28.941800	-155.912761
01186		4.772820	-3.328381	7.751718	-0.060031	-0.098490	-0.120745	-0.094001	-0.009595	0.049428	-0.722656	0.430664	-0.471436	0.047733	-0.033236	0.077535	0.147782	-0.280684	0.143502	-0.937435	-23.717096	-28.935982	-155.880306
01187		4.562699	-3.418736	7.883779	0.171017	0.024121	-0.084887	-0.104401	-0.033076	0.055175	-0.731934	0.434082	-0.467529	0.045623	-0.034134	0.078863	0.148044	-0.280964	0.144042	-0.937227	-23.804455	-28.947308	-155.819102
01188		4.720467	-3.653390	7.690224	-0.104525	0.207484	-0.080492	-0.117271	-0.049942	0.052287	-0.720459	0.434326	-0.477539	0.047195	-0.036476	0.076935	0.148160	-0.281253	0.144634	-0.937031	-23.894116	-28.961900	-155.774253
01189		4.918986	-3.568039	7.535220	-0.325114	0.076031	-0.138218	-0.112398	-0.060026	0.046775	-0.725342	0.437012	-0.464111	0.049176	-0.035627	0.075387	0.148399	-0.281671	0.145178	-0.936783	-23.987275	-28.988927	-155.709859
01190		4.750307	-3.612795	7.582932	-0.162446	0.158476	-0.165561	-0.121564	-0.083310	0.040656	-0.733643	0.436523	-0.469482	0.047479	-0.036072	0.075871	0.148478	-0.282128	0.145749	-0.936545	-24.080426	-29.023579	-155.662976
01191		4.466207	-3.764984	7.822932	0.184623	0.343604	-0.057269	-0.133566	-0.102519	0.040073	-0.729004	0.446045	-0.473389	0.044629	-0.037589	0.078277	0.148687	-0.282766	0.146351	-0.936225	-24.189514	-29.074294	-155.590933
01192		4.707123	-3.595392	7.789583	0.021541	0.097181	-0.027417	-0.145461	-0.127222	0.037761	-0.730225	0.446045	-0.471191	0.047028	-0.035888	0.077952	0.148750	-0.283448	0.146997	-0.935907	-24.301445	-29.132427	-155.533750
01193		4.749304	-3.658206	7.668833	-0.075908	0.150714	-0.080223	-0.144062	-0.141107	0.040113	-0.725586	0.451660	-0.472656	0.047446	-0.036517	0.076748	0.148998	-0.284274	0.147617	-0.935520	-24.422430	-29.202556	-155.447838
01194		5.477999	-3.627109	7.319181	-0.832153	-0.085494	-0.012944	-0.137453	-0.155904	0.039198	-0.734863	0.445068	-0.467285	0.054730	-0.036210	0.073259	0.149100	-0.285083	0.148205	-0.935164	-24.534307	-29.275111	-155.381630
01195		4.982497	-3.866232	7.437518	-0.399279	0.278632	-0.073457	-0.129189	-0.133755	0.054010	-0.733398	0.450439	-0.471680	0.049786	-0.038601	0.074433	0.149428	-0.285855	0.148781	-0.934785	-24.650331	-29.338066	-155.288914
01196		4.866900	-3.885751	7.615948	-0.193079	0.293716	0.019141	-0.118791	-0.129347	0.057297	-0.739258	0.448242	-0.465820	0.048631	-0.038798	0.076214	0.149622	-0.286512	0.149327	-0.934465	-24.753582	-29.392248	-155.218768
01197		4.978332	-3.789867	7.581440	-0.265627	0.162100	0.012192	-0.111552	-0.151458	0.053465	-0.740479	0.454102	-0.464844	0.049736	-0.037843	0.075873	0.149968	-0.287353	0.149811	-0.934074	-24.862036	-29.464475	-155.123209
01198		5.118680	-3.662860	7.503781	-0.381086	0.001681	-0.026017	-0.096745	-0.140962	0.049795	-0.737305	0.462646	-0.462891	0.051143	-0.036580	0.075092	0.150167	-0.288053	0.150234	-0.933759	-24.952346	-29.526295	-155.053993
01199		4.823751	-3.900737	7.481229	-0.193252	0.323035	-0.101282	-0.064681	-0.111458	0.051634	-0.748291	0.469971	-0.464600	0.048206	-0.038971	0.074852	0.150572	-0.288677	0.150521	-0.933455	-25.028846	-29.577780	-154.966376
01200		4.854819	-3.864402	7.452247	-0.218225	0.279036	-0.121797	-0.040657	-0.078881	0.044547	-0.742920	0.462402	-0.464600	0.048527	-0.038618	0.074549	0.150780	-0.289048	0.150722	-0.933273	-25.077162	-29.608506	-154.917348
01201		5.066362	-3.788079	7.309583	-0.446144	0.154447	-0.157395	-0.023589	-0.049637	0.045382	-0.738281	0.453613	-0.468750	0.050654	-0.037861	0.073113	0.151183	-0.289359	0.150853	-0.933091	-25.120356	-29.629117	-154.848713
01202		4.705698	-3.826388	7.543009	-0.029893	0.273649	-0.137666	-0.014176	-0.027262	0.048513	-0.753418	0.465332	-0.459473	0.047056	-0.038247	0.075439	0.151409	-0.289467	0.150975	-0.933001	-25.147607	-29.632053	-154.811681
01203		4.699921	-3.853725	7.355856	-0.137953	0.332979	-0.277533	-0.008896	-0.008346	0.044470	-0.750000	0.474854	-0.465332	0.047005	-0.038524	0.073562	0.151760	-0.289571	0.151076	-0.932895	-25.175976	-29.631785	-154.759874
01204		4.345608	-3.873179	7.553698	0.252938	0.440984	-0.289782	-0.000605	-0.008789	0.039276	-0.752686	0.469971	-0.456543	0.043460	-0.038723	0.075539	0.151949	-0.289590	0.151135	-0.932849	-25.190185	-29.627377	-154.733513
01205		4.348329	-3.959000	7.689059	0.315126	0.489417	-0.150160	-0.001236	-0.018957	0.022241	-0.755371	0.468994	-0.464844	0.043480	-0.039585	0.076895	0.152263	-0.289757	0.151154	-0.932743	-25.210031	-29.637292	-154.685952
01206		4.540482	-3.783556	7.604973	0.150978	0.274359	-0.186223	0.000279	-0.024719	0.012182	-0.749023	0.464111	-0.461914	0.045398	-0.037833	0.076055	0.152339	-0.289870	0.151157	-0.932695	-25.217980	-29.647751	-154.671255
01207		5.015397	-3.697729	7.463336	-0.285230	0.046259	-0.094390	0.001565	-0.019085	0.007157	-0.757324	0.475830	-0.458984	0.050148	-0.036976	0.074638	0.152551	-0.290041	0.151149	-0.932609	-25.231356	-29.661358	-154.637271
01208		4.712309	-3.680902	7.703217	0.098563	0.096978	-0.062030	-0.003297	-0.018724	0.013911	-0.764160	0.478271	-0.458496	0.047118	-0.036804	0.077037	0.152625	-0.290127	0.151177	-0.932565	-25.241059	-29.668292	-154.623201
01209		4.841191	-3.774284	7.515270	-0.129268	0.168408	-0.111318	-0.002475	-0.001567	0.008890	-0.767334	0.473633	-0.464355	0.048413	-0.037740	0.075154	0.152862	-0.290221	0.151197	-0.932494	-25.255352	-29.672029	-154.588537
01210		4.892991	-3.755822	7.425439	-0.220122	0.149468	-0.163132	0.017149	0.019822	0.008583	-0.766357	0.480225	-0.458008	0.048939	-0.037562	0.074246	0.152912	-0.290117	0.151151	-0.932525	-25.246424	-29.660294	-154.588463
01211		4.850093	-3.900883	7.368583	-0.251486	0.308465	-0.175369	0.042852	0.051966	-0.001764	-0.764160	0.473145	-0.467529	0.048520	-0.039025	0.073665	0.153108	-0.289933	0.150988	-0.932577	-25.223976	-29.639039	-154.577336
01212		4.999252	-3.758895	7.280857	-0.399395	0.143999	-0.223504	0.066491	0.080423	-0.010971	-0.761963	0.476074	-0.459961	0.050020	-0.037616	0.072776	0.153093	-0.289523	0.150730	-0.932748	-25.172636	-29.600665	-154.605895
01213		4.758256	-3.817876	7.585232	-0.052027	0.232149	-0.081485	0.075056	0.095034	-0.010576	-0.770752	0.475586	-0.459229	0.047617	-0.038210	0.075815	0.153255	-0.289120	0.150441	-0.932893	-25.123362	-29.559303	-154.612753
01214		4.674206	-3.812665	7.528038	-0.029887	0.274459	-0.170087	0.085307	0.109238	-0.013474	-0.773193	0.473633	-0.467529	0.046781	-0.038162	0.075239	0.153234	-0.288562	0.150114	-0.933122	-25.056650	-29.506548	-154.650723
01215		4.783224	-3.714864	7.524885	-0.109596	0.150000	-0.155109	0.088724	0.123606	-0.019513	-0.771729	0.478760	-0.463135	0.047875	-0.037187	0.075203	0.153340	-0.288020	0.149773	-0.933327	-24.992969	-29.452482	-154.672371
01216		4.605099	-3.568675	7.574192	0.074896	0.079288	-0.257645	0.086220	0.131441	-0.018423	-0.769775	0.474121	-0.467773	0.046097	-0.035724	0.075696	0.153280	-0.287362	0.149451	-0.933591	-24.921431	-29.389322	-154.719253
01217		4.568282	-3.358462	7.856392	0.299699	-0.148679	-0.129742	0.052558	0.093736	-0.001129	-0.772705	0.473633	-0.472412	0.045719	-0.033606	0.078534	0.153272	-0.286952	0.149310	-0.933741	-24.885234	-29.347667	-154.742812
01218		4.753136	-3.355436	7.683685	0.046146	-0.185825	-0.176630	0.027609	0.058505	0.003461	-0.775146	0.473633	-0.463867	0.047554	-0.033564	0.076818	0.153285	-0.286663	0.149237	-0.933840	-24.863695	-29.317099	-154.756331
01219		4.759628	-3.413003	7.694099	0.032243	-0.138466	-0.144099	0.000289	0.035323	0.006262	-0.776367	0.475342	-0.465332	0.047611	-0.034129	0.076933	0.153280	-0.286559	0.149304	-0.933862	-24.867277	-29.303877	-154.759381
01220		4.489892	-3.536747	7.737166	0.242688	0.064508	-0.196639	-0.007655	0.024688	0.013018	-0.781006	0.470947	-0.468262	0.044911	-0.035362	0.077367	0.153312	-0.286447	0.149384	-0.933878	-24.873325	-29.288597	-154.757845
01221		4.607382	-3.766009	7.631281	0.042296	0.246910	-0.138780	-0.014301	0.014612	0.014555	-0.773926	0.472900	-0.466797	0.046082	-0.037651	0.076312	0.153341	-0.286443	0.149515	-0.933853	-24.890335	-29.283985	-154.750299
01222		4.503053	-3.698767	7.749391	0.205798	0.199718	-0.120980	-0.014773	0.016009	0.014159	-0.782715	0.474854	-0.480225	0.045039	-0.036979	0.077493	0.153375	-0.286377	0.149623	-0.933851	-24.901975	-29.272952	-154.745686
01223		4.776418	-3.744867	7.666434	-0.067291	0.152711	-0.035952	-0.012212	0.018293	0.013394	-0.770752	0.480225	-0.462402	0.047774	-0.037441	0.076662	0.153547	-0.286371	0.149723	-0.933809	-24.919503	-29.265153	-154.721380
01224		4.740327	-3.734353	7.569972	-0.094355	0.173085	-0.133757	-0.005746	0.024161	0.014773	-0.780762	0.471436	-0.461670	0.047415	-0.037338	0.075695	0.153590	-0.286259	0.149796	-0.933824	-24.925060	-29.249743	-154.718646
01225		5.050499	-3.741345	7.497990	-0.383274	0.075634	-0.036572	-0.001667	0.026889	0.013824	-0.783203	0.473877	-0.464111	0.050518	-0.037409	0.074973	0.153624	-0.286186	0.149877	-0.933827	-24.933078	-29.238619	-154.714997
01226		5.123488	-3.480834	7.523373	-0.376158	-0.194373	-0.076764	0.001840	0.026379	0.013851	-0.789795	0.475098	-0.465576	0.051247	-0.034805	0.075227	0.153672	-0.286060	0.149916	-0.933852	-24.933730	-29.222291	-154.713424
01227		4.835281	-3.692598	7.616865	-0.138278	0.085663	-0.065616	0.000710	0.024965	0.015974	-0.802002	0.472168	-0.469482	0.048365	-0.036922	0.076162	0.153722	-0.285994	0.149987	-0.933853	-24.941290	-29.211855	-154.707914
01228		4.498581	-3.754361	7.671949	0.144030	0.255345	-0.163578	0.004906	0.037389	0.013831	-0.789795	0.470703	-0.466064	0.045003	-0.037542	0.076710	0.153766	-0.285814	0.150020	-0.933895	-24.938703	-29.189823	-154.709396
01229		4.601568	-3.789952	7.650989	0.040944	0.251870	-0.116777	0.009459	0.038718	0.013279	-0.798096	0.479736	-0.469238	0.046033	-0.037900	0.076499	0.153805	-0.285678	0.150058	-0.933924	-24.938672	-29.172764	-154.709320
01230		4.862017	-3.692178	7.426331	-0.278967	0.108552	-0.203725	0.010854	0.038848	0.006516	-0.795898	0.474609	-0.453857	0.048636	-0.036924	0.074252	0.153822	-0.285492	0.150054	-0.933979	-24.930373	-29.151753	-154.715549
01231		4.668652	-3.636923	7.629942	0.000593	0.090582	-0.157050	0.009323	0.033343	0.006522	-0.796387	0.469971	-0.461670	0.046700	-0.036371	0.076290	0.153833	-0.285387	0.150080	-0.934005	-24.929301	-29.139072	-154.717997
01232		4.547865	-3.789774	7.708988	0.108439	0.258731	-0.096965	0.003014	0.021561	0.001873	-0.793701	0.472656	-0.460205	0.045487	-0.037898	0.077084	0.153830	-0.285291	0.150092	-0.934033	-24.926495	-29.128175	-154.722197
01233		4.551239	-3.684674	7.647563	0.090957	0.173371	-0.182657	0.004306	0.017056	-0.003515	-0.800049	0.459473	-0.459229	0.045518	-0.036849	0.076471	0.153800	-0.285272	0.150116	-0.934040	-24.927628	-29.126218	-154.726143
01234		4.660376	-3.686576	7.720124	0.045607	0.120146	-0.071345	-0.008144	0.008992	-0.005717	-0.797119	0.462402	-0.458984	0.046606	-0.036864	0.077201	0.153755	-0.285249	0.150160	-0.934047	-24.930721	-29.123697	-154.731376
01235		4.552498	-3.705964	7.718231	0.126979	0.177268	-0.118207	-0.010236	0.005312	-0.004559	-0.800293	0.465088	-0.466797	0.045526	-0.037057	0.077183	0.153708	-0.285295	0.150241	-0.934028	-24.941482	-29.127936	-154.732730
01236		4.936652	-3.540485	7.549780	-0.239466	-0.085085	-0.125575	-0.029609	-0.011541	-0.000597	-0.798828	0.462158	-0.463867	0.049362	-0.035394	0.075506	0.153672	-0.285381	0.150377	-0.933986	-24.961133	-29.134856	-154.729230
01237		4.993114	-3.479254	7.573093	-0.253734	-0.168988	-0.102116	-0.041321	-0.031669	0.000732	-0.806641	0.456543	-0.458252	0.049919	-0.034777	0.075746	0.153633	-0.285620	0.150583	-0.933886	-24.996213	-29.156983	-154.717200
01238		4.808976	-3.683232	7.609762	-0.122771	0.074977	-0.087451	-0.045916	-0.048185	0.000746	-0.804443	0.455078	-0.453857	0.048072	-0.036815	0.076118	0.153607	-0.285889	0.150768	-0.933778	-25.030571	-29.182612	-154.702719
01239		4.566817	-3.863065	7.595821	0.031429	0.328467	-0.150043	-0.041011	-0.048562	-0.005989	-0.815186	0.453125	-0.452393	0.045649	-0.038616	0.075977	0.153550	-0.286211	0.150950	-0.933659	-25.065804	-29.215204	-154.689941
01240		4.508877	-3.837199	7.654306	0.121445	0.313917	-0.141639	-0.024591	-0.033018	-0.011130	-0.810791	0.449219	-0.456543	0.045074	-0.038365	0.076555	0.153488	-0.286402	0.151030	-0.933598	-25.082479	-29.235844	-154.686696
01241		4.836832	-3.914708	7.566501	-0.199289	0.278514	-0.022154	-0.008003	-0.018324	-0.019359	-0.813477	0.449951	-0.449463	0.048358	-0.039149	0.075671	0.153392	-0.286567	0.151063	-0.933558	-25.090975	-29.255767	-154.690277
01242		4.824323	-4.193800	7.389111	-0.346875	0.572617	-0.065236	0.016164	-0.001410	-0.028501	-0.815918	0.458740	-0.456055	0.048237	-0.041951	0.073888	0.153284	-0.286591	0.150953	-0.933586	-25.074965	-29.264235	-154.706153
01243		5.123359	-3.919267	7.265221	-0.599628	0.240082	-0.118581	0.045675	0.018063	-0.051930	-0.814697	0.446045	-0.449219	0.051230	-0.039223	0.072639	0.153086	-0.286570	0.150720	-0.933663	-25.038627	-29.273160	-154.739182
01244		4.820752	-3.861175	7.601002	-0.156835	0.241291	-0.022860	0.057566	0.027956	-0.048587	-0.817139	0.451904	-0.460938	0.048209	-0.038645	0.075992	0.152921	-0.286442	0.150410	-0.933779	-24.989065	-29.271240	-154.775176
01245		4.275148	-3.975518	7.724052	0.321072	0.530277	-0.150476	0.052781	0.011552	-0.053610	-0.816162	0.444580	-0.457520	0.042745	-0.039787	0.077228	0.152729	-0.286448	0.150137	-0.933852	-24.949277	-29.284028	-154.807337
01246		4.393799	-3.627804	7.763494	0.320002	0.169311	-0.189424	0.036871	-0.026819	-0.058441	-0.816650	0.443848	-0.453369	0.043917	-0.036305	0.077634	0.152530	-0.286598	0.149869	-0.933882	-24.916120	-29.312913	-154.834030
01247		4.259611	-3.463421	7.848588	0.514861	0.058743	-0.248621	0.003964	-0.089800	-0.065437	-0.821289	0.444092	-0.453613	0.042550	-0.034650	0.078504	0.152289	-0.287121	0.149731	-0.933783	-24.914625	-29.380811	-154.845270
01248		4.406259	-3.336987	7.755439	0.383266	-0.087620	-0.297287	-0.036225	-0.166432	-0.076518	-0.818115	0.432617	-0.447998	0.043985	-0.033373	0.077597	0.152005	-0.287992	0.149671	-0.933570	-24.937011	-29.486610	-154.844071
01249		4.154321	-3.741695	7.754214	0.523719	0.377952	-0.274904	-0.064335	-0.249952	-0.096074	-0.823975	0.435791	-0.446289	0.041428	-0.037412	0.077606	0.151643	-0.289333	0.149685	-0.933212	-24.987325	-29.644763	-154.829146
01250		4.258935	-3.862320	7.733763	0.436818	0.458898	-0.196783	-0.088904	-0.345599	-0.132356	-0.832764	0.433838	-0.443115	0.042430	-0.038617	0.077428	0.151156	-0.291121	0.149654	-0.932740	-25.048255	-29.857123	-154.811129
01251		4.261535	-4.156971	7.541576	0.306447	0.770664	-0.240413	-0.101808	-0.450623	-0.168202	-0.829102	0.438232	-0.447266	0.042410	-0.041567	0.075533	0.150553	-0.293475	0.149587	-0.932111	-25.126985	-30.136394	-154.782723
01252		4.057440	-4.064423	7.803771	0.691353	0.724101	-0.175333	-0.099417	-0.575644	-0.204139	-0.834473	0.428223	-0.432861	0.040308	-0.040647	0.078174	0.149886	-0.296393	0.149325	-0.931336	-25.205484	-30.485506	-154.742154
01253		3.903216	-3.676767	8.235507	1.208695	0.364430	-0.066762	-0.067554	-0.723782	-0.250124	-0.840820	0.429199	-0.428711	0.038688	-0.036788	0.082508	0.149153	-0.300044	0.148773	-0.930373	-25.280205	-30.925670	-154.684407
01254		2.762696	-4.426664	8.296642	2.071635	1.481841	-0.348349	-0.092193	-0.994549	-0.335947	-0.853760	0.423584	-0.411377	0.027140	-0.044274	0.083123	0.148190	-0.304995	0.147962	-0.929045	-25.376801	-31.523938	-154.602036
01255		2.329488	-3.985384	9.000704	3.036830	1.147616	-0.232450	-0.163481	-1.438220	-0.669744	-0.858154	0.419678	-0.403564	0.022513	-0.039856	0.090203	0.145884	-0.312316	0.146683	-0.927179	-25.483147	-32.435437	-154.590721
01256		2.754003	-4.718067	8.498208	2.436459	1.817835	-0.178395	-0.151666	-1.859507	-0.983707	-0.868896	0.407715	-0.388428	0.026516	-0.047248	0.085268	0.142442	-0.321761	0.144493	-0.924825	-25.539158	-33.640591	-154.649361
01257		2.351138	-5.009130	8.486433	2.894840	2.316423	-0.384712	-0.157044	-2.342550	-1.290821	-0.888184	0.396240	-0.366455	0.022191	-0.050171	0.085169	0.137897	-0.333624	0.141521	-0.921765	-25.577182	-35.170742	-154.753600
01258		2.560477	-4.795399	8.554596	3.081805	2.148687	-0.399459	-0.112705	-2.958365	-1.626636	-0.902832	0.391357	-0.343506	0.023945	-0.048105	0.085935	0.132286	-0.348448	0.137276	-0.917736	-25.563659	-37.102876	-154.887879
01259		2.575212	-5.130045	8.702894	3.443068	2.581387	-0.317642	0.037646	-3.590163	-1.997504	-0.933594	0.367432	-0.302734	0.023671	-0.051560	0.087457	0.125623	-0.366190	0.131292	-0.912626	-25.435183	-39.449800	-155.072785
01260		3.258049	-5.901647	8.244827	2.920105	3.351478	-0.135900	0.273133	-4.170024	-2.434221	-0.947754	0.333008	-0.262451	0.030131	-0.059506	0.083013	0.117716	-0.386545	0.122940	-0.906428	-25.071092	-42.206588	-155.391864
01261		3.881919	-6.600066	8.370398	2.944117	4.069002	0.357759	0.625204	-4.621783	-2.823626	-0.973877	0.312256	-0.222656	0.035936	-0.066785	0.084349	0.108931	-0.408688	0.111975	-0.899205	-24.377885	-45.283281	-155.888789
01262		5.327753	-6.153911	9.156297	3.159052	3.496652	1.494087	0.969644	-4.941390	-3.181052	-1.002441	0.271973	-0.170410	0.050007	-0.062799	0.092523	0.099329	-0.431982	0.098384	-0.890980	-23.263032	-48.610328	-156.655164
01263		6.321856	-4.746373	10.273214	4.142963	2.218126	2.265856	1.067731	-5.293458	-3.454451	-1.020996	0.239258	-0.114502	0.059637	-0.049068	0.104083	0.088812	-0.456465	0.083603	-0.881341	-21.864336	-52.162491	-157.689515
01264		10.373861	-3.389445	10.992069	3.269472	0.434669	5.318815	0.818188	-5.673878	-3.576692	-1.034180	0.207764	-0.063477	0.099935	-0.036162	0.112647	0.077239	-0.482343	0.069279	-0.869816	-20.376282	-55.934488	-158.949109
01265		14.540763	-5.530020	13.829667	4.349172	2.189952	10.421095	0.362424	-5.653704	-3.434877	-1.042725	0.165039	-0.004639	0.140443	-0.057996	0.142211	0.065111	-0.507655	0.057321	-0.857182	-18.977213	-59.637075	-160.368752
01266		12.721670	-2.788271	8.307858	1.516759	0.564844	5.547445	0.108547	-5.571316	-3.307484	-1.038086	0.126221	0.048340	0.124353	-0.030002	0.086554	0.052773	-0.532183	0.046628	-0.843696	-17.441460	-63.262765	-162.046721
01267		15.806160	-2.949286	10.285192	2.934416	0.738482	9.029948	-0.627412	-5.492976	-3.140655	-1.042236	0.090332	0.115479	0.154671	-0.031608	0.107228	0.039135	-0.555912	0.039575	-0.829376	-16.075430	-66.783506	-163.960966
01268		15.779605	-6.528473	10.107620	3.729295	4.782099	9.079048	-0.640092	-4.780972	-3.104859	-1.030762	0.053711	0.164307	0.154282	-0.067366	0.105006	0.025409	-0.576253	0.032658	-0.816223	-13.901087	-69.891400	-166.695445
01269		13.295761	-4.485028	6.630641	2.113574	3.445265	5.169612	-0.472143	-4.096858	-3.008962	-1.017578	0.028076	0.200684	0.130868	-0.046669	0.069110	0.012463	-0.593255	0.025533	-0.804513	-10.731699	-72.540007	-170.339696
01270		15.511684	-7.716243	9.532384	4.918230	6.882352	8.059213	-0.174126	-3.210684	-2.768897	-1.006104	-0.014648	0.229004	0.152472	-0.079201	0.097854	0.001213	-0.606407	0.017824	-0.794954	-6.444710	-74.598371	-174.913543
01271		15.883390	-9.682380	18.784437	14.284644	8.908539	10.569776	-0.254016	-1.494144	-1.801934	-1.003174	-0.018311	0.248779	0.156545	-0.098001	0.189144	-0.006543	-0.612374	0.013541	-0.790425	-3.071130	-75.523204	-178.569380
01272		13.989865	-9.251391	17.619371	13.814537	8.617770	8.260475	-0.802857	0.391403	-0.675960	-0.992920	-0.031250	0.228760	0.139931	-0.092279	0.176291	-0.011703	-0.610844	0.014642	-0.791529	-2.008061	-75.317215	179.855632
01273		3.719909	-6.732611	7.592567	6.628452	6.406846	-4.171115	-0.909111	1.438223	0.033813	-0.997803	-0.031494	0.215576	0.037757	-0.066975	0.075960	-0.014393	-0.604913	0.018499	-0.795947	-2.576148	-74.469726	179.886052
01274		-0.985438	-4.010773	3.080544	3.423139	3.850550	-9.858518	-0.717609	1.426252	0.236088	-0.982178	-0.033447	0.194336	-0.009586	-0.040008	0.031018	-0.015759	-0.599149	0.021976	-0.800181	-3.315991	-73.647511	-179.773412
01275		0.388750	-3.395523	3.792337	3.698169	3.169762	-8.283543	-0.660130	1.243929	0.411837	-0.982910	-0.031982	0.191650	0.004193	-0.033821	0.038010	-0.016161	-0.593872	0.026025	-0.803976	-4.416648	-72.893398	-179.040578
01276		2.067325	-4.295146	5.663053	5.021031	3.903595	-6.025581	-0.682730	1.407777	0.767727	-0.976563	-0.024902	0.167725	0.021236	-0.042677	0.056628	-0.015288	-0.588041	0.030946	-0.808094	-5.966698	-72.051015	-177.826638
01277		1.591779	-4.495810	6.173983	5.617941	4.014439	-6.181610	-0.605364	1.758155	1.168857	-0.983154	-0.015869	0.138428	0.016722	-0.044675	0.061731	-0.012547	-0.580463	0.036985	-0.813349	-8.025651	-70.938198	-176.044872
01278		0.635805	-3.305459	6.102860	5.730035	2.801787	-7.003931	-0.521027	2.096461	1.515397	-0.971436	0.010010	0.119385	0.007247	-0.032843	0.061041	-0.008286	-0.571579	0.043379	-0.819358	-10.188354	-69.615175	-174.066048
01279		-0.349351	-1.640215	6.005953	5.821998	1.142046	-7.893998	-0.565975	2.359951	1.780278	-0.966797	0.018799	0.097900	-0.002639	-0.016258	0.060140	-0.003049	-0.561191	0.050993	-0.826109	-12.488990	-68.051445	-171.972612
01280		-0.891550	-0.613213	5.798295	5.724045	0.129571	-8.395870	-0.743520	2.563834	1.964351	-0.957275	0.045166	0.071777	-0.008112	-0.005999	0.058113	0.002323	-0.550016	0.059542	-0.833026	-14.699717	-66.359354	-170.038395
01281		-0.697289	-0.410674	5.792851	5.584866	-0.131940	-8.080247	-0.894405	2.746553	2.089591	-0.956787	0.060547	0.042480	-0.006135	-0.003914	0.058034	0.007821	-0.537595	0.069344	-0.840311	-16.857184	-64.476513	-168.255909
01282		-0.386330	-0.515872	5.692871	5.311668	-0.102706	-7.668643	-0.949984	2.943173	2.201439	-0.958740	0.069336	0.011230	-0.002970	-0.004924	0.057001	0.013493	-0.524411	0.079367	-0.847651	-18.777032	-62.485313	-166.720429
01283		-0.092333	-0.428906	5.585121	5.002122	-0.276541	-7.305631	-0.906900	3.123223	2.279484	-0.937988	0.099609	-0.020752	-0.000004	-0.004039	0.055875	0.019606	-0.509908	0.089683	-0.855316	-20.496034	-60.313609	-165.380813
01284		0.746479	-0.237707	5.591669	4.495443	-0.647678	-6.458785	-0.827254	3.272831	2.321422	-0.932373	0.129639	-0.040039	0.008404	-0.002052	0.055793	0.025952	-0.494849	0.099454	-0.862879	-21.915161	-58.084372	-164.282338
01285		1.868141	0.057621	5.447433	3.645607	-1.173311	-5.511884	-0.785699	3.398545	2.340209	-0.928711	0.143799	-0.086426	0.019593	0.001015	0.054143	0.032479	-0.478664	0.109341	-0.870557	-23.154875	-55.721217	-163.366038
01286		3.059988	0.049811	5.129636	2.562104	-1.419211	-4.607302	-0.784825	3.472911	2.331658	-0.906982	0.171631	-0.111816	0.031474	0.001062	0.050751	0.038844	-0.462295	0.118889	-0.877861	-24.203017	-53.362374	-162.633235
01287		4.247951	-0.368646	4.452516	1.136209	-1.239313	-3.881964	-0.794601	3.508337	2.324441	-0.896973	0.195557	-0.148193	0.043290	-0.003012	0.043783	0.045185	-0.445189	0.128674	-0.884991	-25.160950	-50.927376	-162.021987
01288		5.097690	-1.050487	3.054552	-0.684613	-0.619079	-3.849223	-0.767108	3.407579	2.358668	-0.879883	0.210205	-0.184082	0.051606	-0.009784	0.029708	0.051712	-0.428670	0.138073	-0.891349	-26.046002	-48.582555	-161.440319
01289		6.671030	-1.395722	2.112377	-2.618416	-0.576017	-3.200725	-0.723067	3.117204	2.500787	-0.862305	0.243408	-0.205811	0.067196	-0.013045	0.020127	0.059213	-0.412769	0.147687	-0.896830	-27.008044	-46.292598	-160.721765
01290		8.069868	-1.131862	1.010308	-4.578888	-1.075430	-3.082631	-0.734529	2.692012	2.709009	-0.845703	0.262207	-0.218018	0.080968	-0.010189	0.009053	0.067847	-0.398839	0.157354	-0.900869	-28.099663	-44.206827	-159.779488
01291		9.193138	-1.168870	0.346036	-6.012748	-1.363340	-2.885986	-0.652052	2.158499	2.792893	-0.828369	0.293457	-0.239502	0.092113	-0.010394	0.002502	0.077483	-0.386712	0.166806	-0.903674	-29.252745	-42.304684	-158.666892
01292		12.139539	-1.580442	1.865183	-7.124770	-2.385469	0.030023	-0.421300	1.723021	2.712732	-0.812500	0.320801	-0.256836	0.121749	-0.014117	0.017635	0.087480	-0.376777	0.174614	-0.905481	-30.256438	-40.675791	-157.518543
01293		16.047265	-0.899339	4.555769	-8.148965	-5.151333	3.829694	-0.326774	1.606046	2.630981	-0.793701	0.339111	-0.271729	0.160931	-0.006805	0.044279	0.097422	-0.366978	0.181950	-0.907045	-31.148052	-39.070709	-156.443644
01294		16.621790	0.530585	3.727166	-9.295600	-6.776015	2.761588	-0.399139	1.644333	2.523121	-0.773193	0.366943	-0.292725	0.166432	0.007477	0.035890	0.106628	-0.357377	0.189184	-0.908362	-31.962171	-37.510792	-155.501320
01295		15.925952	1.891837	1.469083	-10.438821	-7.472041	-0.088598	-0.389802	1.404606	2.186352	-0.757813	0.383789	-0.299316	0.159138	0.020686	0.013534	0.114574	-0.348834	0.195770	-0.909319	-32.666090	-36.124522	-154.719000
01296		17.156761	2.419576	0.816974	-11.840136	-8.418204	-0.335832	-0.358034	1.011302	1.742923	-0.747070	0.389404	-0.303223	0.171386	0.025703	0.007258	0.120881	-0.342715	0.201022	-0.909684	-33.247597	-35.094446	-154.075136
01297		18.276726	1.836295	0.636004	-12.898613	-8.442706	0.195072	-0.380386	0.634616	1.351606	-0.736572	0.406982	-0.308838	0.182656	0.019609	0.005744	0.125773	-0.338491	0.205574	-0.909585	-33.780688	-34.337161	-153.536244
01298		19.781981	-0.165155	0.503416	-14.316859	-7.358034	1.697769	-0.292693	0.350932	1.009427	-0.730957	0.414795	-0.312256	0.197833	-0.000646	0.004688	0.129509	-0.336035	0.208846	-0.909226	-34.198847	-33.846430	-153.092023
01299		20.529307	-1.050391	0.950487	-14.694399	-7.128363	2.706023	0.036746	0.329100	0.714440	-0.723389	0.425049	-0.323486	0.205344	-0.009772	0.009165	0.132496	-0.333657	0.210176	-0.909364	-34.337910	-33.445023	-152.813946
01300		18.319980	0.844446	-0.145053	-13.624838	-7.704399	-0.254392	0.212347	0.362621	0.409208	-0.721436	0.428711	-0.319580	0.183179	0.008821	-0.001773	0.134333	-0.331435	0.210148	-0.909914	-34.268491	-33.140538	-152.721434
01301		15.975320	2.504772	-2.133746	-13.037524	-7.694522	-3.741865	0.202577	0.118108	-0.043320	-0.718750	0.428223	-0.335449	0.159746	0.025035	-0.021406	0.134353	-0.330788	0.209282	-0.910346	-34.119699	-33.094960	-152.790001
01302		15.541856	1.338076	-2.739908	-13.237348	-6.300263	-3.818903	0.248303	-0.246901	-0.545674	-0.735840	0.424805	-0.332520	0.155488	0.012990	-0.027191	0.132541	-0.332313	0.207097	-0.910556	-33.861330	-33.386316	-153.004488
01303		15.779218	-0.013774	-1.713715	-12.854904	-5.422712	-2.245385	0.441753	-0.517724	-0.965010	-0.732910	0.414795	-0.329834	0.157833	-0.000862	-0.016730	0.129406	-0.335437	0.203150	-0.910750	-33.416360	-33.946652	-153.356828
01304		15.696276	-0.974380	-0.740775	-12.197519	-4.704108	-1.040025	0.449528	-0.711525	-1.140246	-0.743896	0.406250	-0.329346	0.156929	-0.010623	-0.006873	0.125690	-0.339534	0.198740	-0.910725	-32.940006	-34.644691	-153.747732
01305		14.746363	-3.042882	-1.545672	-12.152893	-2.178500	-1.057043	0.286113	-0.958333	-1.071440	-0.757324	0.407959	-0.323486	0.147370	-0.031197	-0.014795	0.122223	-0.344916	0.195002	-0.909983	-32.628712	-35.455308	-154.009664
01306		20.439989	-22.106510	-1.339272	-17.734949	12.971012	10.814971	0.956402	-1.063391	-1.140245	-0.772461	0.399414	-0.330322	0.203206	-0.222162	-0.013371	0.119719	-0.350266	0.188041	-0.909737	-31.918490	-36.318653	-154.288940
01307		12.582236	-26.241990	7.970345	-6.407722	17.444592	13.956616	4.375516	0.395047	0.312136	-0.765625	0.402588	-0.350342	0.126383	-0.263879	0.073691	0.128369	-0.345690	0.168914	-0.914050	-29.455386	-36.056937	-154.231534
01308		-3.013024	0.810955	16.031685	13.089247	-2.884204	-0.481968	4.223417	-0.102075	0.926456	-0.776367	0.392578	-0.365479	-0.030239	0.004583	0.160423	0.139961	-0.342582	0.151125	-0.916630	-27.396429	-35.855161	-153.619444
01309		0.398377	16.924867	33.678811	24.823136	-21.610033	8.563007	1.260669	1.227385	0.865183	-0.766846	0.392334	-0.372070	0.005329	0.167143	0.337816	0.145114	-0.335591	0.147767	-0.918959	-26.780217	-35.022836	-153.462158
01310		1.609572	-7.283631	8.616497	3.238433	4.531036	0.130488	-0.379217	1.680293	-0.164886	-0.762695	0.397217	-0.382324	0.016760	-0.072687	0.086164	0.142476	-0.328255	0.150462	-0.921580	-26.642685	-34.204826	-154.089448
01311		6.235066	-11.744076	2.080252	-5.265800	8.106767	-0.449083	0.513572	1.034172	0.122893	-0.749512	0.400879	-0.394531	0.062528	-0.117455	0.020178	0.143071	-0.323142	0.149052	-0.923522	-26.220747	-33.656202	-154.328960
01312		4.465341	-0.655310	10.822537	3.403798	-2.989787	1.002586	0.322804	0.978287	0.060417	-0.753906	0.402588	-0.399658	0.045184	-0.006714	0.107994	0.143145	-0.318346	0.148372	-0.925285	-25.896075	-33.137025	-154.585577
01313		4.337957	-4.401304	7.402768	0.607589	1.110799	-0.253045	0.144356	0.911788	-0.127631	-0.751953	0.400635	-0.405762	0.043688	-0.044094	0.073797	0.142121	-0.314237	0.148181	-0.926876	-25.633987	-32.710787	-154.925565
01314		6.335409	-1.894863	8.025309	-0.178239	-2.010678	0.388213	0.133976	0.764812	-0.069764	-0.749756	0.395996	-0.422607	0.063654	-0.019024	0.079997	0.141444	-0.310648	0.148008	-0.928216	-25.415950	-32.332180	-155.191217
01315		5.094494	-2.463298	8.021497	0.606256	-1.051022	-0.071352	0.105980	0.615587	0.030732	-0.750244	0.402832	-0.423340	0.051195	-0.024668	0.080045	0.141291	-0.307810	0.148028	-0.929181	-25.279408	-32.018444	-155.344674
01316		4.889043	-3.065940	8.140604	0.678871	-0.454059	0.132407	0.082169	0.509284	0.035155	-0.750977	0.410400	-0.420166	0.049103	-0.030684	0.081269	0.141207	-0.305360	0.148075	-0.929994	-25.168437	-31.745522	-155.468588
01317		5.158063	-3.303491	7.829283	0.193300	-0.277877	0.122179	0.078302	0.483761	0.038925	-0.744873	0.412109	-0.430908	0.051776	-0.033055	0.078155	0.141183	-0.303143	0.148130	-0.930714	-25.072490	-31.496941	-155.572672
01318		5.459217	-3.644875	7.386633	-0.417661	0.007748	0.060295	0.087954	0.530483	0.049602	-0.744141	0.408447	-0.433105	0.054797	-0.036468	0.073705	0.141158	-0.300576	0.148185	-0.931542	-24.961599	-31.209161	-155.691949
01319		5.798511	-3.562366	7.244433	-0.805850	-0.165913	0.092754	0.083852	0.591641	0.051527	-0.737061	0.414307	-0.443115	0.058208	-0.035639	0.072257	0.141138	-0.297841	0.148304	-0.932404	-24.852782	-30.900878	-155.814714
01320		5.600572	-3.642351	7.201512	-0.751095	-0.021187	-0.018303	0.109335	0.648604	0.078341	-0.740234	0.416992	-0.445557	0.056253	-0.036441	0.071813	0.141188	-0.294682	0.148383	-0.933387	-24.723887	-30.544372	-155.947472
01321		5.638034	-3.852713	7.038456	-0.976921	0.182662	-0.056532	0.122588	0.682207	0.097299	-0.736816	0.409912	-0.452148	0.056639	-0.038543	0.070168	0.141392	-0.291463	0.148447	-0.934356	-24.597333	-30.177610	-156.062194
01322		4.834999	-3.932252	7.233616	-0.305910	0.492402	-0.282280	0.129511	0.634740	0.093533	-0.735596	0.418945	-0.462402	0.048598	-0.039347	0.072157	0.141550	-0.288337	0.148442	-0.935302	-24.466223	-29.824234	-156.179165
01323		4.511032	-4.061173	7.682632	0.134555	0.629537	-0.042800	0.103713	0.539582	0.080220	-0.736816	0.428223	-0.468018	0.045334	-0.040633	0.076683	0.141731	-0.285805	0.148471	-0.936047	-24.367222	-29.535814	-156.264893
01324		4.122249	-3.837290	7.872569	0.546342	0.518366	-0.162416	0.098991	0.443924	0.046504	-0.736572	0.421875	-0.472900	0.041406	-0.038402	0.078615	0.141765	-0.283624	0.148404	-0.936716	-24.267275	-29.292813	-156.356156
01325		4.715466	-2.971901	8.004573	0.270882	-0.511022	-0.075829	0.057699	0.308514	0.022797	-0.732422	0.432617	-0.472412	0.047281	-0.029737	0.079964	0.141817	-0.282245	0.148401	-0.937125	-24.210531	-29.137449	-156.408255
01326		4.792581	-2.739213	8.062753	0.262078	-0.766062	-0.074898	0.001951	0.162632	0.019656	-0.735596	0.432617	-0.469971	0.047994	-0.027388	0.080588	0.141795	-0.281470	0.148551	-0.937338	-24.196017	-29.047622	-156.439103
01327		4.266408	-2.690279	8.304336	0.824391	-0.681058	-0.155650	-0.061702	0.031184	0.034270	-0.730469	0.433105	-0.475342	0.042682	-0.026870	0.083045	0.141980	-0.281468	0.148917	-0.937252	-24.247589	-29.033880	-156.404705
01328		4.394306	-3.096079	8.215222	0.601087	-0.345550	-0.019589	-0.111248	-0.068408	0.043869	-0.733643	0.441650	-0.473145	0.043922	-0.030905	0.082184	0.142084	-0.281838	0.149467	-0.937038	-24.335169	-29.059067	-156.358923
01329		4.858771	-3.328588	7.658923	-0.116272	-0.195483	-0.153779	-0.142053	-0.125835	0.038489	-0.734863	0.445313	-0.466797	0.048546	-0.033222	0.076643	0.142307	-0.282622	0.150099	-0.936666	-24.454306	-29.125576	-156.277949
01330		4.767079	-3.450991	7.670221	-0.042353	-0.064919	-0.145183	-0.147573	-0.148467	0.042010	-0.747314	0.437012	-0.467041	0.047621	-0.034443	0.076763	0.142411	-0.283394	0.150759	-0.936311	-24.572951	-29.192806	-156.211302
01331		4.851636	-3.603903	7.579605	-0.169555	0.051220	-0.120140	-0.155559	-0.159089	0.043658	-0.746826	0.438477	-0.471924	0.048464	-0.035969	0.075863	0.142662	-0.284339	0.151435	-0.935877	-24.705842	-29.275171	-156.118085
01332		5.321488	-3.450582	7.443053	-0.575316	-0.239250	-0.053819	-0.161336	-0.181193	0.043610	-0.750977	0.447510	-0.466064	0.053155	-0.034434	0.074506	0.142778	-0.285272	0.152138	-0.935462	-24.837650	-29.358800	-156.041003
01333		5.011699	-3.743635	7.434577	-0.362129	0.127116	-0.104056	-0.169824	-0.205501	0.039234	-0.743408	0.448486	-0.454834	0.050048	-0.037363	0.074429	0.143000	-0.286445	0.152844	-0.934954	-24.983785	-29.466380	-155.939744
01334		4.585037	-3.799780	7.697386	0.143484	0.264273	-0.085398	-0.171518	-0.224830	0.038161	-0.751221	0.449707	-0.459473	0.045771	-0.037923	0.077058	0.143109	-0.287593	0.153555	-0.934468	-25.126384	-29.573669	-155.853098
01335		4.369297	-3.980058	7.632103	0.273607	0.507085	-0.176893	-0.184808	-0.270102	0.024939	-0.757813	0.456543	-0.453857	0.043595	-0.039725	0.076417	0.143323	-0.289091	0.154258	-0.933857	-25.287254	-29.717353	-155.737333
01336		4.967139	-3.864001	7.494418	-0.227464	0.205748	-0.031323	-0.191516	-0.310993	0.001759	-0.746094	0.449219	-0.453613	0.049555	-0.038568	0.075058	0.143299	-0.290682	0.154948	-0.933253	-25.443463	-29.877796	-155.647106
01337		5.050912	-3.675320	7.529553	-0.201260	-0.013448	-0.031427	-0.203813	-0.344275	-0.011819	-0.760498	0.450928	-0.454346	0.050377	-0.036679	0.075420	0.143370	-0.292565	0.155634	-0.932539	-25.616087	-30.068165	-155.530971
01338		5.277580	-3.956121	7.341414	-0.500104	0.190526	0.041933	-0.216998	-0.379828	-0.026466	-0.760254	0.453369	-0.451172	0.052631	-0.039488	0.073557	0.143229	-0.294515	0.156350	-0.931827	-25.789612	-30.270715	-155.436364
01339		5.204008	-3.962339	7.296425	-0.426607	0.222296	-0.025548	-0.216901	-0.364677	-0.026124	-0.770996	0.455322	-0.442627	0.051902	-0.039551	0.073102	0.143198	-0.296508	0.157064	-0.931079	-25.969390	-30.475035	-155.324940
01340		5.378477	-3.993723	7.212060	-0.580148	0.196701	0.011582	-0.191475	-0.334648	-0.015898	-0.772949	0.455078	-0.447266	0.053661	-0.039872	0.072249	0.143107	-0.298219	0.157707	-0.930438	-26.126283	-30.651193	-155.235401
01341		5.291707	-4.137069	7.027328	-0.614164	0.388554	-0.118740	-0.148992	-0.238565	-0.011637	-0.764404	0.464111	-0.448730	0.052831	-0.041321	0.070367	0.143134	-0.299564	0.158218	-0.929915	-26.253976	-30.786776	-155.151848
01342		5.349549	-4.087603	6.984613	-0.655356	0.326347	-0.139272	-0.086274	-0.139482	-0.015565	-0.772949	0.460449	-0.441406	0.053444	-0.040850	0.069901	0.143047	-0.300290	0.158512	-0.929644	-26.322077	-30.862288	-155.118660
